tick,accel_x,accel_y,accel_z,gyro_x,gyro_y,gyro_z,mag_x,mag_y,mag_z,pressure_pa,temperature_c,latitude,longitude,gps_altitude,unix_time,milliseconds,satellites,baro_altitude,pos_x,pos_y,pos_z,vel_x,vel_y,vel_z,quat_w,quat_x,quat_y,quat_z,p_diag_0,p_diag_1,p_diag_2,p_diag_3,p_diag_4,p_diag_5,p_diag_6,p_diag_7,p_diag_8,flags,battery_v,state,relay,last_command
5012,-1.7034885883331299,-9.660964012145996,0,0,0,0,20,5,-40,101325,25,0,0,0,0,0,0,0,0,0,0,0,0,0,0,0,0,0,0,0,0,0,0,0,0,0,0,0,0.874657154083252,1,0,3
5022,-1.7034885883331299,-9.660964012145996,0,0,0,0,20,5,-40,101325,25,0,0,0,0,0,0,0,0,0,0,0,0,0,0,0,0,0,0,0,0,0,0,0,0,0,0,0,0.874657154083252,1,0,3
5032,-1.7034885883331299,-9.660964012145996,0,0,0,0,20,5,-40,101325,25,0,0,0,0,0,0,0,0,0,0,0,0,0,0,0,0,0,0,0,0,0,0,0,0,0,0,0,0.874657154083252,1,0,3
5042,-1.7034885883331299,-9.660964012145996,0,0,0,0,20,5,-40,101325,25,0,0,0,0,0,0,0,0,0,0,0,0,0,0,0,0,0,0,0,0,0,0,0,0,0,0,0,0.874657154083252,1,0,3
5052,-1.7034885883331299,-9.660964012145996,0,0,0,0,20,5,-40,101325,25,0,0,0,0,0,0,0,0,0,0,0,0,0,0,0,0,0,0,0,0,0,0,0,0,0,0,0,0.874657154083252,1,0,3
5062,-1.7034885883331299,-9.660964012145996,0,0,0,0,20,5,-40,101325,25,0,0,0,0,0,0,0,0,0,0,0,0,0,0,0,0,0,0,0,0,0,0,0,0,0,0,0,0.874657154083252,1,0,3
5072,-1.7034885883331299,-9.660964012145996,0,0,0,0,20,5,-40,101325,25,0,0,0,0,0,0,0,0,0,0,0,0,0,0,0,0,0,0,0,0,0,0,0,0,0,0,0,0.874657154083252,1,0,3
5082,-1.7034885883331299,-9.660964012145996,0,0,0,0,20,5,-40,101325,25,0,0,0,0,0,0,0,0,0,0,0,0,0,0,0,0,0,0,0,0,0,0,0,0,0,0,0,0.874657154083252,1,0,3
5092,-1.7034885883331299,-9.660964012145996,0,0,0,0,20,5,-40,101325,25,0,0,0,0,0,0,0,0,0,0,0,0,0,0,0,0,0,0,0,0,0,0,0,0,0,0,0,0.874657154083252,1,0,3
5102,-1.7034885883331299,-9.660964012145996,0,0,0,0,20,5,-40,101325,25,0,0,0,0,0,0,0,0,0,0,0,0,0,0,0,0,0,0,0,0,0,0,0,0,0,0,0,0.874657154083252,1,0,3
5112,-1.7034885883331299,-9.660964012145996,0,0,0,0,20,5,-40,101325,25,0,0,0,0,0,0,0,0,0,0,0,0,0,0,0,0,0,0,0,0,0,0,0,0,0,0,0,0.874657154083252,1,0,3
5122,-1.7034885883331299,-9.660964012145996,0,0,0,0,20,5,-40,101325,25,0,0,0,0,0,0,0,0,0,0,0,0,0,0,0,0,0,0,0,0,0,0,0,0,0,0,0,0.8855000138282776,1,0,3
5132,-1.7034885883331299,-9.660964012145996,0,0,0,0,20,5,-40,101325,25,0,0,0,0,0,0,0,0,0,0,0,0,0,0,0,0,0,0,0,0,0,0,0,0,0,0,0,0.8855000138282776,1,0,3
5142,-1.7034885883331299,-9.660964012145996,0,0,0,0,20,5,-40,101325,25,0,0,0,0,0,0,0,0,0,0,0,0,0,0,0,0,0,0,0,0,0,0,0,0,0,0,0,0.8855000138282776,1,0,3
5152,-1.7034885883331299,-9.660964012145996,0,0,0,0,20,5,-40,101325,25,0,0,0,0,0,0,0,0,0,0,0,0,0,0,0,0,0,0,0,0,0,0,0,0,0,0,0,0.8855000138282776,1,0,3
5162,-1.7034885883331299,-9.660964012145996,0,0,0,0,20,5,-40,101325,25,0,0,0,0,0,0,0,0,0,0,0,0,0,0,0,0,0,0,0,0,0,0,0,0,0,0,0,0.8855000138282776,1,0,3
5172,-1.7034885883331299,-9.660964012145996,0,0,0,0,20,5,-40,101325,25,0,0,0,0,0,0,0,0,0,0,0,0,0,0,0,0,0,0,0,0,0,0,0,0,0,0,0,0.8855000138282776,1,0,3
5182,-1.7034885883331299,-9.660964012145996,0,0,0,0,20,5,-40,101325,25,0,0,0,0,0,0,0,0,0,0,0,0,0,0,0,0,0,0,0,0,0,0,0,0,0,0,0,0.8855000138282776,1,0,3
5192,-1.7034885883331299,-9.660964012145996,0,0,0,0,20,5,-40,101325,25,0,0,0,0,0,0,0,0,0,0,0,0,0,0,0,0,0,0,0,0,0,0,0,0,0,0,0,0.8855000138282776,1,0,3
5202,-1.7034885883331299,-9.660964012145996,0,0,0,0,20,5,-40,101325,25,0,0,0,0,0,0,0,0,0,0,0,0,0,0,0,0,0,0,0,0,0,0,0,0,0,0,0,0.8855000138282776,1,0,3
5212,-1.7034885883331299,-9.660964012145996,0,0,0,0,20,5,-40,101325,25,0,0,0,0,0,0,0,0,0,0,0,0,0,0,0,0,0,0,0,0,0,0,0,0,0,0,0,0.8855000138282776,1,0,3
5222,-1.7034885883331299,-9.660964012145996,0,0,0,0,20,5,-40,101325,25,0,0,0,0,0,0,0,0,0,0,0,0,0,0,0,0,0,0,0,0,0,0,0,0,0,0,0,0.8855000138282776,1,0,3
5232,-1.7034885883331299,-9.660964012145996,0,0,0,0,20,5,-40,101325,25,0,0,0,0,0,0,0,0,0,0,0,0,0,0,0,0,0,0,0,0,0,0,0,0,0,0,0,0.8855000138282776,1,0,3
5242,-1.7034885883331299,-9.660964012145996,0,0,0,0,20,5,-40,101325,25,0,0,0,0,0,0,0,0,0,0,0,0,0,0,0,0,0,0,0,0,0,0,0,0,0,0,0,0.8855000138282776,1,0,3
5252,-1.7034885883331299,-9.660964012145996,0,0,0,0,20,5,-40,101325,25,0,0,0,0,0,0,0,0,0,0,0,0,0,0,0,0,0,0,0,0,0,0,0,0,0,0,0,0.8855000138282776,1,0,3
5262,-1.7034885883331299,-9.660964012145996,0,0,0,0,20,5,-40,101325,25,0,0,0,0,0,0,0,0,0,0,0,0,0,0,0,0,0,0,0,0,0,0,0,0,0,0,0,0.8855000138282776,1,0,3
5272,-1.7034885883331299,-9.660964012145996,0,0,0,0,20,5,-40,101325,25,0,0,0,0,0,0,0,0,0,0,0,0,0,0,0,0,0,0,0,0,0,0,0,0,0,0,0,0.8855000138282776,1,0,3
5282,-1.7034885883331299,-9.660964012145996,0,0,0,0,20,5,-40,101325,25,0,0,0,0,0,0,0,0,0,0,0,0,0,0,0,0,0,0,0,0,0,0,0,0,0,0,0,0.8855000138282776,1,0,3
5292,-1.7034885883331299,-9.660964012145996,0,0,0,0,20,5,-40,101325,25,0,0,0,0,0,0,0,0,0,0,0,0,0,0,0,0,0,0,0,0,0,0,0,0,0,0,0,0.8855000138282776,1,0,3
5302,-1.7034885883331299,-9.660964012145996,0,0,0,0,20,5,-40,101325,25,0,0,0,0,0,0,0,0,0,0,0,0,0,0,0,0,0,0,0,0,0,0,0,0,0,0,0,0.8855000138282776,1,0,3
5312,-1.7034885883331299,-9.660964012145996,0,0,0,0,20,5,-40,101325,25,0,0,0,0,0,0,0,0,0,0,0,0,0,0,0,0,0,0,0,0,0,0,0,0,0,0,0,0.8855000138282776,1,0,3
5322,-1.7034885883331299,-9.660964012145996,0,0,0,0,20,5,-40,101325,25,0,0,0,0,0,0,0,0,0,0,0,0,0,0,0,0,0,0,0,0,0,0,0,0,0,0,0,0.8855000138282776,1,0,3
5332,-1.7034885883331299,-9.660964012145996,0,0,0,0,20,5,-40,101325,25,0,0,0,0,0,0,0,0,0,0,0,0,0,0,0,0,0,0,0,0,0,0,0,0,0,0,0,0.8855000138282776,1,0,3
5342,-1.7034885883331299,-9.660964012145996,0,0,0,0,20,5,-40,101325,25,0,0,0,0,0,0,0,0,0,0,0,0,0,0,0,0,0,0,0,0,0,0,0,0,0,0,0,0.8855000138282776,1,0,3
5352,-1.7034885883331299,-9.660964012145996,0,0,0,0,20,5,-40,101325,25,0,0,0,0,0,0,0,0,0,0,0,0,0,0,0,0,0,0,0,0,0,0,0,0,0,0,0,0.8855000138282776,1,0,3
5362,-1.7034885883331299,-9.660964012145996,0,0,0,0,20,5,-40,101325,25,0,0,0,0,0,0,0,0,0,0,0,0,0,0,0,0,0,0,0,0,0,0,0,0,0,0,0,0.8855000138282776,1,0,3
5372,-1.7034885883331299,-9.660964012145996,0,0,0,0,20,5,-40,101325,25,0,0,0,0,0,0,0,0,0,0,0,0,0,0,0,0,0,0,0,0,0,0,0,0,0,0,0,0.8855000138282776,1,0,3
5382,-1.7034885883331299,-9.660964012145996,0,0,0,0,20,5,-40,101325,25,0,0,0,0,0,0,0,0,0,0,0,0,0,0,0,0,0,0,0,0,0,0,0,0,0,0,0,0.8855000138282776,1,0,3
5392,-1.7034885883331299,-9.660964012145996,0,0,0,0,20,5,-40,101325,25,0,0,0,0,0,0,0,0,0,0,0,0,0,0,0,0,0,0,0,0,0,0,0,0,0,0,0,0.8855000138282776,1,0,3
5402,-1.7034885883331299,-9.660964012145996,0,0,0,0,20,5,-40,101325,25,0,0,0,0,0,0,0,0,0,0,0,0,0,0,0,0,0,0,0,0,0,0,0,0,0,0,0,0.8855000138282776,1,0,3
5412,-1.7034885883331299,-9.660964012145996,0,0,0,0,20,5,-40,101325,25,0,0,0,0,0,0,0,0,0,0,0,0,0,0,0,0,0,0,0,0,0,0,0,0,0,0,0,0.8855000138282776,1,0,3
5422,-1.7034885883331299,-9.660964012145996,0,0,0,0,20,5,-40,101325,25,0,0,0,0,0,0,0,0,0,0,0,0,0,0,0,0,0,0,0,0,0,0,0,0,0,0,0,0.8855000138282776,1,0,3
5432,-1.7034885883331299,-9.660964012145996,0,0,0,0,20,5,-40,101325,25,0,0,0,0,0,0,0,0,0,0,0,0,0,0,0,0,0,0,0,0,0,0,0,0,0,0,0,0.8855000138282776,1,0,3
5442,-1.7034885883331299,-9.660964012145996,0,0,0,0,20,5,-40,101325,25,0,0,0,0,0,0,0,0,0,0,0,0,0,0,0,0,0,0,0,0,0,0,0,0,0,0,0,0.8855000138282776,1,0,3
5452,-1.7034885883331299,-9.660964012145996,0,0,0,0,20,5,-40,101325,25,0,0,0,0,0,0,0,0,0,0,0,0,0,0,0,0,0,0,0,0,0,0,0,0,0,0,0,0.8855000138282776,1,0,3
5462,-1.7034885883331299,-9.660964012145996,0,0,0,0,20,5,-40,101325,25,0,0,0,0,0,0,0,0,0,0,0,0,0,0,0,0,0,0,0,0,0,0,0,0,0,0,0,0.8855000138282776,1,0,3
5472,-1.7034885883331299,-9.660964012145996,0,0,0,0,20,5,-40,101325,25,0,0,0,0,0,0,0,0,0,0,0,0,0,0,0,0,0,0,0,0,0,0,0,0,0,0,0,0.8855000138282776,1,0,3
5482,-1.7034885883331299,-9.660964012145996,0,0,0,0,20,5,-40,101325,25,0,0,0,0,0,0,0,0,0,0,0,0,0,0,0,0,0,0,0,0,0,0,0,0,0,0,0,0.8855000138282776,1,0,3
5492,-1.7034885883331299,-9.660964012145996,0,0,0,0,20,5,-40,101325,25,0,0,0,0,0,0,0,0,0,0,0,0,0,0,0,0,0,0,0,0,0,0,0,0,0,0,0,0.8855000138282776,1,0,3
5502,-1.7034885883331299,-9.660964012145996,0,0,0,0,20,5,-40,101325,25,0,0,0,0,0,0,0,0,0,0,0,0,0,0,0,0,0,0,0,0,0,0,0,0,0,0,0,0.8855000138282776,1,0,3
5512,-1.7034885883331299,-9.660964012145996,0,0,0,0,20,5,-40,101325,25,0,0,0,0,0,0,0,0,0,0,0,0,0,0,0,0,0,0,0,0,0,0,0,0,0,0,0,0.8855000138282776,1,0,3
5522,-1.7034885883331299,-9.660964012145996,0,0,0,0,20,5,-40,101325,25,0,0,0,0,0,0,0,0,0,0,0,0,0,0,0,0,0,0,0,0,0,0,0,0,0,0,0,0.8855000138282776,1,0,3
5532,-1.7034885883331299,-9.660964012145996,0,0,0,0,20,5,-40,101325,25,0,0,0,0,0,0,0,0,0,0,0,0,0,0,0,0,0,0,0,0,0,0,0,0,0,0,0,0.8855000138282776,1,0,3
5542,-1.7034885883331299,-9.660964012145996,0,0,0,0,20,5,-40,101325,25,0,0,0,0,0,0,0,0,0,0,0,0,0,0,0,0,0,0,0,0,0,0,0,0,0,0,0,0.8855000138282776,1,0,3
5552,-1.7034885883331299,-9.660964012145996,0,0,0,0,20,5,-40,101325,25,0,0,0,0,0,0,0,0,0,0,0,0,0,0,0,0,0,0,0,0,0,0,0,0,0,0,0,0.8855000138282776,1,0,3
5562,-1.7034885883331299,-9.660964012145996,0,0,0,0,20,5,-40,101325,25,0,0,0,0,0,0,0,0,0,0,0,0,0,0,0,0,0,0,0,0,0,0,0,0,0,0,0,0.8855000138282776,1,0,3
5572,-1.7034885883331299,-9.660964012145996,0,0,0,0,20,5,-40,101325,25,0,0,0,0,0,0,0,0,0,0,0,0,0,0,0,0,0,0,0,0,0,0,0,0,0,0,0,0.8855000138282776,1,0,3
5582,-1.7034885883331299,-9.660964012145996,0,0,0,0,20,5,-40,101325,25,0,0,0,0,0,0,0,0,0,0,0,0,0,0,0,0,0,0,0,0,0,0,0,0,0,0,0,0.8855000138282776,1,0,3
5592,-1.7034885883331299,-9.660964012145996,0,0,0,0,20,5,-40,101325,25,0,0,0,0,0,0,0,0,0,0,0,0,0,0,0,0,0,0,0,0,0,0,0,0,0,0,0,0.8855000138282776,1,0,3
5602,-1.7034885883331299,-9.660964012145996,0,0,0,0,20,5,-40,101325,25,0,0,0,0,0,0,0,0,0,0,0,0,0,0,0,0,0,0,0,0,0,0,0,0,0,0,0,0.8855000138282776,1,0,3
5612,-1.7034885883331299,-9.660964012145996,0,0,0,0,20,5,-40,101325,25,0,0,0,0,0,0,0,0,0,0,0,0,0,0,0,0,0,0,0,0,0,0,0,0,0,0,0,0.8855000138282776,1,0,3
5622,-1.7034885883331299,-9.660964012145996,0,0,0,0,20,5,-40,101325,25,0,0,0,0,0,0,0,0,0,0,0,0,0,0,0,0,0,0,0,0,0,0,0,0,0,0,0,0.8927285671234131,1,0,3
5632,-1.7034885883331299,-9.660964012145996,0,0,0,0,20,5,-40,101325,25,0,0,0,0,0,0,0,0,0,0,0,0,0,0,0,0,0,0,0,0,0,0,0,0,0,0,0,0.8927285671234131,1,0,3
5642,-1.7034885883331299,-9.660964012145996,0,0,0,0,20,5,-40,101325,25,0,0,0,0,0,0,0,0,0,0,0,0,0,0,0,0,0,0,0,0,0,0,0,0,0,0,0,0.8927285671234131,1,0,3
5652,-1.7034885883331299,-9.660964012145996,0,0,0,0,20,5,-40,101325,25,0,0,0,0,0,0,0,0,0,0,0,0,0,0,0,0,0,0,0,0,0,0,0,0,0,0,0,0.8927285671234131,1,0,3
5662,-1.7034885883331299,-9.660964012145996,0,0,0,0,20,5,-40,101325,25,0,0,0,0,0,0,0,0,0,0,0,0,0,0,0,0,0,0,0,0,0,0,0,0,0,0,0,0.8927285671234131,1,0,3
5672,-1.7034885883331299,-9.660964012145996,0,0,0,0,20,5,-40,101325,25,0,0,0,0,0,0,0,0,0,0,0,0,0,0,0,0,0,0,0,0,0,0,0,0,0,0,0,0.8927285671234131,1,0,3
5682,-1.7034885883331299,-9.660964012145996,0,0,0,0,20,5,-40,101325,25,0,0,0,0,0,0,0,0,0,0,0,0,0,0,0,0,0,0,0,0,0,0,0,0,0,0,0,0.8927285671234131,1,0,3
5692,-1.7034885883331299,-9.660964012145996,0,0,0,0,20,5,-40,101325,25,0,0,0,0,0,0,0,0,0,0,0,0,0,0,0,0,0,0,0,0,0,0,0,0,0,0,0,0.8927285671234131,1,0,3
5702,-1.7034885883331299,-9.660964012145996,0,0,0,0,20,5,-40,101325,25,0,0,0,0,0,0,0,0,0,0,0,0,0,0,0,0,0,0,0,0,0,0,0,0,0,0,0,0.8927285671234131,1,0,3
5712,-1.7034885883331299,-9.660964012145996,0,0,0,0,20,5,-40,101325,25,0,0,0,0,0,0,0,0,0,0,0,0,0,0,0,0,0,0,0,0,0,0,0,0,0,0,0,0.8927285671234131,1,0,3
5722,-1.7034885883331299,-9.660964012145996,0,0,0,0,20,5,-40,101325,25,0,0,0,0,0,0,0,0,0,0,0,0,0,0,0,0,0,0,0,0,0,0,0,0,0,0,0,0.8927285671234131,1,0,3
5732,-1.7034885883331299,-9.660964012145996,0,0,0,0,20,5,-40,101325,25,0,0,0,0,0,0,0,0,0,0,0,0,0,0,0,0,0,0,0,0,0,0,0,0,0,0,0,0.8927285671234131,1,0,3
5742,-1.7034885883331299,-9.660964012145996,0,0,0,0,20,5,-40,101325,25,0,0,0,0,0,0,0,0,0,0,0,0,0,0,0,0,0,0,0,0,0,0,0,0,0,0,0,0.8927285671234131,1,0,3
5752,-1.7034885883331299,-9.660964012145996,0,0,0,0,20,5,-40,101325,25,0,0,0,0,0,0,0,0,0,0,0,0,0,0,0,0,0,0,0,0,0,0,0,0,0,0,0,0.8927285671234131,1,0,3
5762,-1.7034885883331299,-9.660964012145996,0,0,0,0,20,5,-40,101325,25,0,0,0,0,0,0,0,0,0,0,0,0,0,0,0,0,0,0,0,0,0,0,0,0,0,0,0,0.8927285671234131,1,0,3
5772,-1.7034885883331299,-9.660964012145996,0,0,0,0,20,5,-40,101325,25,0,0,0,0,0,0,0,0,0,0,0,0,0,0,0,0,0,0,0,0,0,0,0,0,0,0,0,0.8927285671234131,1,0,3
5782,-1.7034885883331299,-9.660964012145996,0,0,0,0,20,5,-40,101325,25,0,0,0,0,0,0,0,0,0,0,0,0,0,0,0,0,0,0,0,0,0,0,0,0,0,0,0,0.8927285671234131,1,0,3
5792,-1.7034885883331299,-9.660964012145996,0,0,0,0,20,5,-40,101325,25,0,0,0,0,0,0,0,0,0,0,0,0,0,0,0,0,0,0,0,0,0,0,0,0,0,0,0,0.8927285671234131,1,0,3
5802,-1.7034885883331299,-9.660964012145996,0,0,0,0,20,5,-40,101325,25,0,0,0,0,0,0,0,0,0,0,0,0,0,0,0,0,0,0,0,0,0,0,0,0,0,0,0,0.8927285671234131,1,0,3
5812,-1.7034885883331299,-9.660964012145996,0,0,0,0,20,5,-40,101325,25,0,0,0,0,0,0,0,0,0,0,0,0,0,0,0,0,0,0,0,0,0,0,0,0,0,0,0,0.8927285671234131,1,0,3
5822,-1.7034885883331299,-9.660964012145996,0,0,0,0,20,5,-40,101325,25,0,0,0,0,0,0,0,0,0,0,0,0,0,0,0,0,0,0,0,0,0,0,0,0,0,0,0,0.8927285671234131,1,0,3
5832,-1.7034885883331299,-9.660964012145996,0,0,0,0,20,5,-40,101325,25,0,0,0,0,0,0,0,0,0,0,0,0,0,0,0,0,0,0,0,0,0,0,0,0,0,0,0,0.8927285671234131,1,0,3
5842,-1.7034885883331299,-9.660964012145996,0,0,0,0,20,5,-40,101325,25,0,0,0,0,0,0,0,0,0,0,0,0,0,0,0,0,0,0,0,0,0,0,0,0,0,0,0,0.8927285671234131,1,0,3
5852,-1.7034885883331299,-9.660964012145996,0,0,0,0,20,5,-40,101325,25,0,0,0,0,0,0,0,0,0,0,0,0,0,0,0,0,0,0,0,0,0,0,0,0,0,0,0,0.8927285671234131,1,0,3
5862,-1.7034885883331299,-9.660964012145996,0,0,0,0,20,5,-40,101325,25,0,0,0,0,0,0,0,0,0,0,0,0,0,0,0,0,0,0,0,0,0,0,0,0,0,0,0,0.8927285671234131,1,0,3
5872,-1.7034885883331299,-9.660964012145996,0,0,0,0,20,5,-40,101325,25,0,0,0,0,0,0,0,0,0,0,0,0,0,0,0,0,0,0,0,0,0,0,0,0,0,0,0,0.8927285671234131,1,0,3
5882,-1.7034885883331299,-9.660964012145996,0,0,0,0,20,5,-40,101325,25,0,0,0,0,0,0,0,0,0,0,0,0,0,0,0,0,0,0,0,0,0,0,0,0,0,0,0,0.8927285671234131,1,0,3
5892,-1.7034885883331299,-9.660964012145996,0,0,0,0,20,5,-40,101325,25,0,0,0,0,0,0,0,0,0,0,0,0,0,0,0,0,0,0,0,0,0,0,0,0,0,0,0,0.8927285671234131,1,0,3
5902,-1.7034885883331299,-9.660964012145996,0,0,0,0,20,5,-40,101325,25,0,0,0,0,0,0,0,0,0,0,0,0,0,0,0,0,0,0,0,0,0,0,0,0,0,0,0,0.8927285671234131,1,0,3
5912,-1.7034885883331299,-9.660964012145996,0,0,0,0,20,5,-40,101325,25,0,0,0,0,0,0,0,0,0,0,0,0,0,0,0,0,0,0,0,0,0,0,0,0,0,0,0,0.8927285671234131,1,0,3
5922,-1.7034885883331299,-9.660964012145996,0,0,0,0,20,5,-40,101325,25,0,0,0,0,0,0,0,0,0,0,0,0,0,0,0,0,0,0,0,0,0,0,0,0,0,0,0,0.8927285671234131,1,0,3
5932,-1.7034885883331299,-9.660964012145996,0,0,0,0,20,5,-40,101325,25,0,0,0,0,0,0,0,0,0,0,0,0,0,0,0,0,0,0,0,0,0,0,0,0,0,0,0,0.8927285671234131,1,0,3
5942,-1.7034885883331299,-9.660964012145996,0,0,0,0,20,5,-40,101325,25,0,0,0,0,0,0,0,0,0,0,0,0,0,0,0,0,0,0,0,0,0,0,0,0,0,0,0,0.8927285671234131,1,0,3
5952,-1.7034885883331299,-9.660964012145996,0,0,0,0,20,5,-40,101325,25,0,0,0,0,0,0,0,0,0,0,0,0,0,0,0,0,0,0,0,0,0,0,0,0,0,0,0,0.8927285671234131,1,0,3
5962,-1.7034885883331299,-9.660964012145996,0,0,0,0,20,5,-40,101325,25,0,0,0,0,0,0,0,0,0,0,0,0,0,0,0,0,0,0,0,0,0,0,0,0,0,0,0,0.8927285671234131,1,0,3
5972,-1.7034885883331299,-9.660964012145996,0,0,0,0,20,5,-40,101325,25,0,0,0,0,0,0,0,0,0,0,0,0,0,0,0,0,0,0,0,0,0,0,0,0,0,0,0,0.8927285671234131,1,0,3
5982,-1.7034885883331299,-9.660964012145996,0,0,0,0,20,5,-40,101325,25,0,0,0,0,0,0,0,0,0,0,0,0,0,0,0,0,0,0,0,0,0,0,0,0,0,0,0,0.8927285671234131,1,0,3
5992,-1.7034885883331299,-9.660964012145996,0,0,0,0,20,5,-40,101325,25,0,0,0,0,0,0,0,0,0,0,0,0,0,0,0,0,0,0,0,0,0,0,0,0,0,0,0,0.8927285671234131,1,0,3
6002,-1.7034885883331299,-9.660964012145996,0,0,0,0,20,5,-40,101325,25,0,0,0,0,0,0,0,0,0,0,0,0,0,0,0,0,0,0,0,0,0,0,0,0,0,0,0,0.8927285671234131,1,0,3
6012,-1.7034885883331299,-9.660964012145996,0,0,0,0,20,5,-40,101325,25,0,0,0,0,0,0,0,0,0,0,0,0,0,0,0,0,0,0,0,0,0,0,0,0,0,0,0,0.8927285671234131,1,0,3
6022,-1.7034885883331299,-9.660964012145996,0,0,0,0,20,5,-40,101325,25,0,0,0,0,0,0,0,0,0,0,0,0,0,0,0,0,0,0,0,0,0,0,0,0,0,0,0,0.8927285671234131,1,0,3
6032,-1.7034885883331299,-9.660964012145996,0,0,0,0,20,5,-40,101325,25,0,0,0,0,0,0,0,0,0,0,0,0,0,0,0,0,0,0,0,0,0,0,0,0,0,0,0,0.8927285671234131,1,0,3
6042,-1.7034885883331299,-9.660964012145996,0,0,0,0,20,5,-40,101325,25,0,0,0,0,0,0,0,0,0,0,0,0,0,0,0,0,0,0,0,0,0,0,0,0,0,0,0,0.8927285671234131,1,0,3
6052,-1.7034885883331299,-9.660964012145996,0,0,0,0,20,5,-40,101325,25,0,0,0,0,0,0,0,0,0,0,0,0,0,0,0,0,0,0,0,0,0,0,0,0,0,0,0,0.8927285671234131,1,0,3
6062,-1.7034885883331299,-9.660964012145996,0,0,0,0,20,5,-40,101325,25,0,0,0,0,0,0,0,0,0,0,0,0,0,0,0,0,0,0,0,0,0,0,0,0,0,0,0,0.8927285671234131,1,0,3
6072,-1.7034885883331299,-9.660964012145996,0,0,0,0,20,5,-40,101325,25,0,0,0,0,0,0,0,0,0,0,0,0,0,0,0,0,0,0,0,0,0,0,0,0,0,0,0,0.8927285671234131,1,0,3
6082,-1.7034885883331299,-9.660964012145996,0,0,0,0,20,5,-40,101325,25,0,0,0,0,0,0,0,0,0,0,0,0,0,0,0,0,0,0,0,0,0,0,0,0,0,0,0,0.8927285671234131,1,0,3
6092,-1.7034885883331299,-9.660964012145996,0,0,0,0,20,5,-40,101325,25,0,0,0,0,0,0,0,0,0,0,0,0,0,0,0,0,0,0,0,0,0,0,0,0,0,0,0,0.8927285671234131,1,0,3
6102,-1.7034885883331299,-9.660964012145996,0,0,0,0,20,5,-40,101325,25,0,0,0,0,0,0,0,0,0,0,0,0,0,0,0,0,0,0,0,0,0,0,0,0,0,0,0,0.8927285671234131,1,0,3
6112,-1.7034885883331299,-9.660964012145996,0,0,0,0,20,5,-40,101325,25,0,0,0,0,0,0,0,0,0,0,0,0,0,0,0,0,0,0,0,0,0,0,0,0,0,0,0,0.8927285671234131,1,0,3
6122,-1.7034885883331299,-9.660964012145996,0,0,0,0,20,5,-40,101325,25,0,0,0,0,0,0,0,0,0,0,0,0,0,0,0,0,0,0,0,0,0,0,0,0,0,0,0,0.9071857333183289,1,0,3
6132,-1.7034885883331299,-9.660964012145996,0,0,0,0,20,5,-40,101325,25,0,0,0,0,0,0,0,0,0,0,0,0,0,0,0,0,0,0,0,0,0,0,0,0,0,0,0,0.9071857333183289,1,0,3
6142,-1.7034885883331299,-9.660964012145996,0,0,0,0,20,5,-40,101325,25,0,0,0,0,0,0,0,0,0,0,0,0,0,0,0,0,0,0,0,0,0,0,0,0,0,0,0,0.9071857333183289,1,0,3
6152,-1.7034885883331299,-9.660964012145996,0,0,0,0,20,5,-40,101325,25,0,0,0,0,0,0,0,0,0,0,0,0,0,0,0,0,0,0,0,0,0,0,0,0,0,0,0,0.9071857333183289,1,0,3
6162,-1.7034885883331299,-9.660964012145996,0,0,0,0,20,5,-40,101325,25,0,0,0,0,0,0,0,0,0,0,0,0,0,0,0,0,0,0,0,0,0,0,0,0,0,0,0,0.9071857333183289,1,0,3
6172,-1.7034885883331299,-9.660964012145996,0,0,0,0,20,5,-40,101325,25,0,0,0,0,0,0,0,0,0,0,0,0,0,0,0,0,0,0,0,0,0,0,0,0,0,0,0,0.9071857333183289,1,0,3
6182,-1.7034885883331299,-9.660964012145996,0,0,0,0,20,5,-40,101325,25,0,0,0,0,0,0,0,0,0,0,0,0,0,0,0,0,0,0,0,0,0,0,0,0,0,0,0,0.9071857333183289,1,0,3
6192,-1.7034885883331299,-9.660964012145996,0,0,0,0,20,5,-40,101325,25,0,0,0,0,0,0,0,0,0,0,0,0,0,0,0,0,0,0,0,0,0,0,0,0,0,0,0,0.9071857333183289,1,0,3
6202,-1.7034885883331299,-9.660964012145996,0,0,0,0,20,5,-40,101325,25,0,0,0,0,0,0,0,0,0,0,0,0,0,0,0,0,0,0,0,0,0,0,0,0,0,0,0,0.9071857333183289,1,0,3
6212,-1.7034885883331299,-9.660964012145996,0,0,0,0,20,5,-40,101325,25,0,0,0,0,0,0,0,0,0,0,0,0,0,0,0,0,0,0,0,0,0,0,0,0,0,0,0,0.9071857333183289,1,0,3
6222,-1.7034885883331299,-9.660964012145996,0,0,0,0,20,5,-40,101325,25,0,0,0,0,0,0,0,0,0,0,0,0,0,0,0,0,0,0,0,0,0,0,0,0,0,0,0,0.9071857333183289,1,0,3
6232,-1.7034885883331299,-9.660964012145996,0,0,0,0,20,5,-40,101325,25,0,0,0,0,0,0,0,0,0,0,0,0,0,0,0,0,0,0,0,0,0,0,0,0,0,0,0,0.9071857333183289,1,0,3
6242,-1.7034885883331299,-9.660964012145996,0,0,0,0,20,5,-40,101325,25,0,0,0,0,0,0,0,0,0,0,0,0,0,0,0,0,0,0,0,0,0,0,0,0,0,0,0,0.9071857333183289,1,0,3
6252,-1.7034885883331299,-9.660964012145996,0,0,0,0,20,5,-40,101325,25,0,0,0,0,0,0,0,0,0,0,0,0,0,0,0,0,0,0,0,0,0,0,0,0,0,0,0,0.9071857333183289,1,0,3
6262,-1.7034885883331299,-9.660964012145996,0,0,0,0,20,5,-40,101325,25,0,0,0,0,0,0,0,0,0,0,0,0,0,0,0,0,0,0,0,0,0,0,0,0,0,0,0,0.9071857333183289,1,0,3
6272,-1.7034885883331299,-9.660964012145996,0,0,0,0,20,5,-40,101325,25,0,0,0,0,0,0,0,0,0,0,0,0,0,0,0,0,0,0,0,0,0,0,0,0,0,0,0,0.9071857333183289,1,0,3
6282,-1.7034885883331299,-9.660964012145996,0,0,0,0,20,5,-40,101325,25,0,0,0,0,0,0,0,0,0,0,0,0,0,0,0,0,0,0,0,0,0,0,0,0,0,0,0,0.9071857333183289,1,0,3
6292,-1.7034885883331299,-9.660964012145996,0,0,0,0,20,5,-40,101325,25,0,0,0,0,0,0,0,0,0,0,0,0,0,0,0,0,0,0,0,0,0,0,0,0,0,0,0,0.9071857333183289,1,0,3
6302,-1.7034885883331299,-9.660964012145996,0,0,0,0,20,5,-40,101325,25,0,0,0,0,0,0,0,0,0,0,0,0,0,0,0,0,0,0,0,0,0,0,0,0,0,0,0,0.9071857333183289,1,0,3
6312,-1.7034885883331299,-9.660964012145996,0,0,0,0,20,5,-40,101325,25,0,0,0,0,0,0,0,0,0,0,0,0,0,0,0,0,0,0,0,0,0,0,0,0,0,0,0,0.9071857333183289,1,0,3
6322,-1.7034885883331299,-9.660964012145996,0,0,0,0,20,5,-40,101325,25,0,0,0,0,0,0,0,0,0,0,0,0,0,0,0,0,0,0,0,0,0,0,0,0,0,0,0,0.9071857333183289,1,0,3
6332,-1.7034885883331299,-9.660964012145996,0,0,0,0,20,5,-40,101325,25,0,0,0,0,0,0,0,0,0,0,0,0,0,0,0,0,0,0,0,0,0,0,0,0,0,0,0,0.9071857333183289,1,0,3
6342,-1.7034885883331299,-9.660964012145996,0,0,0,0,20,5,-40,101325,25,0,0,0,0,0,0,0,0,0,0,0,0,0,0,0,0,0,0,0,0,0,0,0,0,0,0,0,0.9071857333183289,1,0,3
6352,-1.7034885883331299,-9.660964012145996,0,0,0,0,20,5,-40,101325,25,0,0,0,0,0,0,0,0,0,0,0,0,0,0,0,0,0,0,0,0,0,0,0,0,0,0,0,0.9071857333183289,1,0,3
6362,-1.7034885883331299,-9.660964012145996,0,0,0,0,20,5,-40,101325,25,0,0,0,0,0,0,0,0,0,0,0,0,0,0,0,0,0,0,0,0,0,0,0,0,0,0,0,0.9071857333183289,1,0,3
6372,-1.7034885883331299,-9.660964012145996,0,0,0,0,20,5,-40,101325,25,0,0,0,0,0,0,0,0,0,0,0,0,0,0,0,0,0,0,0,0,0,0,0,0,0,0,0,0.9071857333183289,1,0,3
6382,-1.7034885883331299,-9.660964012145996,0,0,0,0,20,5,-40,101325,25,0,0,0,0,0,0,0,0,0,0,0,0,0,0,0,0,0,0,0,0,0,0,0,0,0,0,0,0.9071857333183289,1,0,3
6392,-1.7034885883331299,-9.660964012145996,0,0,0,0,20,5,-40,101325,25,0,0,0,0,0,0,0,0,0,0,0,0,0,0,0,0,0,0,0,0,0,0,0,0,0,0,0,0.9071857333183289,1,0,3
6402,-1.7034885883331299,-9.660964012145996,0,0,0,0,20,5,-40,101325,25,0,0,0,0,0,0,0,0,0,0,0,0,0,0,0,0,0,0,0,0,0,0,0,0,0,0,0,0.9071857333183289,1,0,3
6412,-1.7034885883331299,-9.660964012145996,0,0,0,0,20,5,-40,101325,25,0,0,0,0,0,0,0,0,0,0,0,0,0,0,0,0,0,0,0,0,0,0,0,0,0,0,0,0.9071857333183289,1,0,3
6422,-1.7034885883331299,-9.660964012145996,0,0,0,0,20,5,-40,101325,25,0,0,0,0,0,0,0,0,0,0,0,0,0,0,0,0,0,0,0,0,0,0,0,0,0,0,0,0.9071857333183289,1,0,3
6432,-1.7034885883331299,-9.660964012145996,0,0,0,0,20,5,-40,101325,25,0,0,0,0,0,0,0,0,0,0,0,0,0,0,0,0,0,0,0,0,0,0,0,0,0,0,0,0.9071857333183289,1,0,3
6442,-1.7034885883331299,-9.660964012145996,0,0,0,0,20,5,-40,101325,25,0,0,0,0,0,0,0,0,0,0,0,0,0,0,0,0,0,0,0,0,0,0,0,0,0,0,0,0.9071857333183289,1,0,3
6452,-1.7034885883331299,-9.660964012145996,0,0,0,0,20,5,-40,101325,25,0,0,0,0,0,0,0,0,0,0,0,0,0,0,0,0,0,0,0,0,0,0,0,0,0,0,0,0.9071857333183289,1,0,3
6462,-1.7034885883331299,-9.660964012145996,0,0,0,0,20,5,-40,101325,25,0,0,0,0,0,0,0,0,0,0,0,0,0,0,0,0,0,0,0,0,0,0,0,0,0,0,0,0.9071857333183289,1,0,3
6472,-1.7034885883331299,-9.660964012145996,0,0,0,0,20,5,-40,101325,25,0,0,0,0,0,0,0,0,0,0,0,0,0,0,0,0,0,0,0,0,0,0,0,0,0,0,0,0.9071857333183289,1,0,3
6482,-1.7034885883331299,-9.660964012145996,0,0,0,0,20,5,-40,101325,25,0,0,0,0,0,0,0,0,0,0,0,0,0,0,0,0,0,0,0,0,0,0,0,0,0,0,0,0.9071857333183289,1,0,3
6492,-1.7034885883331299,-9.660964012145996,0,0,0,0,20,5,-40,101325,25,0,0,0,0,0,0,0,0,0,0,0,0,0,0,0,0,0,0,0,0,0,0,0,0,0,0,0,0.9071857333183289,1,0,3
6502,-1.7034885883331299,-9.660964012145996,0,0,0,0,20,5,-40,101325,25,0,0,0,0,0,0,0,0,0,0,0,0,0,0,0,0,0,0,0,0,0,0,0,0,0,0,0,0.9071857333183289,1,0,3
6512,-1.7034885883331299,-9.660964012145996,0,0,0,0,20,5,-40,101325,25,0,0,0,0,0,0,0,0,0,0,0,0,0,0,0,0,0,0,0,0,0,0,0,0,0,0,0,0.9071857333183289,1,0,3
6522,-1.7034885883331299,-9.660964012145996,0,0,0,0,20,5,-40,101325,25,0,0,0,0,0,0,0,0,0,0,0,0,0,0,0,0,0,0,0,0,0,0,0,0,0,0,0,0.9071857333183289,1,0,3
6532,-1.7034885883331299,-9.660964012145996,0,0,0,0,20,5,-40,101325,25,0,0,0,0,0,0,0,0,0,0,0,0,0,0,0,0,0,0,0,0,0,0,0,0,0,0,0,0.9071857333183289,1,0,3
6542,-1.7034885883331299,-9.660964012145996,0,0,0,0,20,5,-40,101325,25,0,0,0,0,0,0,0,0,0,0,0,0,0,0,0,0,0,0,0,0,0,0,0,0,0,0,0,0.9071857333183289,1,0,3
6552,-1.7034885883331299,-9.660964012145996,0,0,0,0,20,5,-40,101325,25,0,0,0,0,0,0,0,0,0,0,0,0,0,0,0,0,0,0,0,0,0,0,0,0,0,0,0,0.9071857333183289,1,0,3
6562,-1.7034885883331299,-9.660964012145996,0,0,0,0,20,5,-40,101325,25,0,0,0,0,0,0,0,0,0,0,0,0,0,0,0,0,0,0,0,0,0,0,0,0,0,0,0,0.9071857333183289,1,0,3
6572,-1.7034885883331299,-9.660964012145996,0,0,0,0,20,5,-40,101325,25,0,0,0,0,0,0,0,0,0,0,0,0,0,0,0,0,0,0,0,0,0,0,0,0,0,0,0,0.9071857333183289,1,0,3
6582,-1.7034885883331299,-9.660964012145996,0,0,0,0,20,5,-40,101325,25,0,0,0,0,0,0,0,0,0,0,0,0,0,0,0,0,0,0,0,0,0,0,0,0,0,0,0,0.9071857333183289,1,0,3
6592,-1.7034885883331299,-9.660964012145996,0,0,0,0,20,5,-40,101325,25,0,0,0,0,0,0,0,0,0,0,0,0,0,0,0,0,0,0,0,0,0,0,0,0,0,0,0,0.9071857333183289,1,0,3
6602,-1.7034885883331299,-9.660964012145996,0,0,0,0,20,5,-40,101325,25,0,0,0,0,0,0,0,0,0,0,0,0,0,0,0,0,0,0,0,0,0,0,0,0,0,0,0,0.9071857333183289,1,0,3
6612,-1.7034885883331299,-9.660964012145996,0,0,0,0,20,5,-40,101325,25,0,0,0,0,0,0,0,0,0,0,0,0,0,0,0,0,0,0,0,0,0,0,0,0,0,0,0,0.9071857333183289,1,0,3
6622,-1.7034885883331299,-9.660964012145996,0,0,0,0,20,5,-40,101325,25,0,0,0,0,0,0,0,0,0,0,0,0,0,0,0,0,0,0,0,0,0,0,0,0,0,0,0,0.9288714528083801,1,0,3
6632,-1.7034885883331299,-9.660964012145996,0,0,0,0,20,5,-40,101325,25,0,0,0,0,0,0,0,0,0,0,0,0,0,0,0,0,0,0,0,0,0,0,0,0,0,0,0,0.9288714528083801,1,0,3
6642,-1.7034885883331299,-9.660964012145996,0,0,0,0,20,5,-40,101325,25,0,0,0,0,0,0,0,0,0,0,0,0,0,0,0,0,0,0,0,0,0,0,0,0,0,0,0,0.9288714528083801,1,0,3
6652,-1.7034885883331299,-9.660964012145996,0,0,0,0,20,5,-40,101325,25,0,0,0,0,0,0,0,0,0,0,0,0,0,0,0,0,0,0,0,0,0,0,0,0,0,0,0,0.9288714528083801,1,0,3
6662,-1.7034885883331299,-9.660964012145996,0,0,0,0,20,5,-40,101325,25,0,0,0,0,0,0,0,0,0,0,0,0,0,0,0,0,0,0,0,0,0,0,0,0,0,0,0,0.9288714528083801,1,0,3
6672,-1.7034885883331299,-9.660964012145996,0,0,0,0,20,5,-40,101325,25,0,0,0,0,0,0,0,0,0,0,0,0,0,0,0,0,0,0,0,0,0,0,0,0,0,0,0,0.9288714528083801,1,0,3
6682,-1.7034885883331299,-9.660964012145996,0,0,0,0,20,5,-40,101325,25,0,0,0,0,0,0,0,0,0,0,0,0,0,0,0,0,0,0,0,0,0,0,0,0,0,0,0,0.9288714528083801,1,0,3
6692,-1.7034885883331299,-9.660964012145996,0,0,0,0,20,5,-40,101325,25,0,0,0,0,0,0,0,0,0,0,0,0,0,0,0,0,0,0,0,0,0,0,0,0,0,0,0,0.9288714528083801,1,0,3
6702,-1.7034885883331299,-9.660964012145996,0,0,0,0,20,5,-40,101325,25,0,0,0,0,0,0,0,0,0,0,0,0,0,0,0,0,0,0,0,0,0,0,0,0,0,0,0,0.9288714528083801,1,0,3
6712,-1.7034885883331299,-9.660964012145996,0,0,0,0,20,5,-40,101325,25,0,0,0,0,0,0,0,0,0,0,0,0,0,0,0,0,0,0,0,0,0,0,0,0,0,0,0,0.9288714528083801,1,0,3
6722,-1.7034885883331299,-9.660964012145996,0,0,0,0,20,5,-40,101325,25,0,0,0,0,0,0,0,0,0,0,0,0,0,0,0,0,0,0,0,0,0,0,0,0,0,0,0,0.9288714528083801,1,0,3
6732,-1.7034885883331299,-9.660964012145996,0,0,0,0,20,5,-40,101325,25,0,0,0,0,0,0,0,0,0,0,0,0,0,0,0,0,0,0,0,0,0,0,0,0,0,0,0,0.9288714528083801,1,0,3
6742,-1.7034885883331299,-9.660964012145996,0,0,0,0,20,5,-40,101325,25,0,0,0,0,0,0,0,0,0,0,0,0,0,0,0,0,0,0,0,0,0,0,0,0,0,0,0,0.9288714528083801,1,0,3
6752,-1.7034885883331299,-9.660964012145996,0,0,0,0,20,5,-40,101325,25,0,0,0,0,0,0,0,0,0,0,0,0,0,0,0,0,0,0,0,0,0,0,0,0,0,0,0,0.9288714528083801,1,0,3
6762,-1.7034885883331299,-9.660964012145996,0,0,0,0,20,5,-40,101325,25,0,0,0,0,0,0,0,0,0,0,0,0,0,0,0,0,0,0,0,0,0,0,0,0,0,0,0,0.9288714528083801,1,0,3
6772,-1.7034885883331299,-9.660964012145996,0,0,0,0,20,5,-40,101325,25,0,0,0,0,0,0,0,0,0,0,0,0,0,0,0,0,0,0,0,0,0,0,0,0,0,0,0,0.9288714528083801,1,0,3
6782,-1.7034885883331299,-9.660964012145996,0,0,0,0,20,5,-40,101325,25,0,0,0,0,0,0,0,0,0,0,0,0,0,0,0,0,0,0,0,0,0,0,0,0,0,0,0,0.9288714528083801,1,0,3
6792,-1.7034885883331299,-9.660964012145996,0,0,0,0,20,5,-40,101325,25,0,0,0,0,0,0,0,0,0,0,0,0,0,0,0,0,0,0,0,0,0,0,0,0,0,0,0,0.9288714528083801,1,0,3
6802,-1.7034885883331299,-9.660964012145996,0,0,0,0,20,5,-40,101325,25,0,0,0,0,0,0,0,0,0,0,0,0,0,0,0,0,0,0,0,0,0,0,0,0,0,0,0,0.9288714528083801,1,0,3
6812,-1.7034885883331299,-9.660964012145996,0,0,0,0,20,5,-40,101325,25,0,0,0,0,0,0,0,0,0,0,0,0,0,0,0,0,0,0,0,0,0,0,0,0,0,0,0,0.9288714528083801,1,0,3
6822,-1.7034885883331299,-9.660964012145996,0,0,0,0,20,5,-40,101325,25,0,0,0,0,0,0,0,0,0,0,0,0,0,0,0,0,0,0,0,0,0,0,0,0,0,0,0,0.9288714528083801,1,0,3
6832,-1.7034885883331299,-9.660964012145996,0,0,0,0,20,5,-40,101325,25,0,0,0,0,0,0,0,0,0,0,0,0,0,0,0,0,0,0,0,0,0,0,0,0,0,0,0,0.9288714528083801,1,0,3
6842,-1.7034885883331299,-9.660964012145996,0,0,0,0,20,5,-40,101325,25,0,0,0,0,0,0,0,0,0,0,0,0,0,0,0,0,0,0,0,0,0,0,0,0,0,0,0,0.9288714528083801,1,0,3
6852,-1.7034885883331299,-9.660964012145996,0,0,0,0,20,5,-40,101325,25,0,0,0,0,0,0,0,0,0,0,0,0,0,0,0,0,0,0,0,0,0,0,0,0,0,0,0,0.9288714528083801,1,0,3
6862,-1.7034885883331299,-9.660964012145996,0,0,0,0,20,5,-40,101325,25,0,0,0,0,0,0,0,0,0,0,0,0,0,0,0,0,0,0,0,0,0,0,0,0,0,0,0,0.9288714528083801,1,0,3
6872,-1.7034885883331299,-9.660964012145996,0,0,0,0,20,5,-40,101325,25,0,0,0,0,0,0,0,0,0,0,0,0,0,0,0,0,0,0,0,0,0,0,0,0,0,0,0,0.9288714528083801,1,0,3
6882,-1.7034885883331299,-9.660964012145996,0,0,0,0,20,5,-40,101325,25,0,0,0,0,0,0,0,0,0,0,0,0,0,0,0,0,0,0,0,0,0,0,0,0,0,0,0,0.9288714528083801,1,0,3
6892,-1.7034885883331299,-9.660964012145996,0,0,0,0,20,5,-40,101325,25,0,0,0,0,0,0,0,0,0,0,0,0,0,0,0,0,0,0,0,0,0,0,0,0,0,0,0,0.9288714528083801,1,0,3
6902,-1.7034885883331299,-9.660964012145996,0,0,0,0,20,5,-40,101325,25,0,0,0,0,0,0,0,0,0,0,0,0,0,0,0,0,0,0,0,0,0,0,0,0,0,0,0,0.9288714528083801,1,0,3
6912,-1.7034885883331299,-9.660964012145996,0,0,0,0,20,5,-40,101325,25,0,0,0,0,0,0,0,0,0,0,0,0,0,0,0,0,0,0,0,0,0,0,0,0,0,0,0,0.9288714528083801,1,0,3
6922,-1.7034885883331299,-9.660964012145996,0,0,0,0,20,5,-40,101325,25,0,0,0,0,0,0,0,0,0,0,0,0,0,0,0,0,0,0,0,0,0,0,0,0,0,0,0,0.9288714528083801,1,0,3
6932,-1.7034885883331299,-9.660964012145996,0,0,0,0,20,5,-40,101325,25,0,0,0,0,0,0,0,0,0,0,0,0,0,0,0,0,0,0,0,0,0,0,0,0,0,0,0,0.9288714528083801,1,0,3
6942,-1.7034885883331299,-9.660964012145996,0,0,0,0,20,5,-40,101325,25,0,0,0,0,0,0,0,0,0,0,0,0,0,0,0,0,0,0,0,0,0,0,0,0,0,0,0,0.9288714528083801,1,0,3
6952,-1.7034885883331299,-9.660964012145996,0,0,0,0,20,5,-40,101325,25,0,0,0,0,0,0,0,0,0,0,0,0,0,0,0,0,0,0,0,0,0,0,0,0,0,0,0,0.9288714528083801,1,0,3
6962,-1.7034885883331299,-9.660964012145996,0,0,0,0,20,5,-40,101325,25,0,0,0,0,0,0,0,0,0,0,0,0,0,0,0,0,0,0,0,0,0,0,0,0,0,0,0,0.9288714528083801,1,0,3
6972,-1.7034885883331299,-9.660964012145996,0,0,0,0,20,5,-40,101325,25,0,0,0,0,0,0,0,0,0,0,0,0,0,0,0,0,0,0,0,0,0,0,0,0,0,0,0,0.9288714528083801,1,0,3
6982,-1.7034885883331299,-9.660964012145996,0,0,0,0,20,5,-40,101325,25,0,0,0,0,0,0,0,0,0,0,0,0,0,0,0,0,0,0,0,0,0,0,0,0,0,0,0,0.9288714528083801,1,0,3
6992,-1.7034885883331299,-9.660964012145996,0,0,0,0,20,5,-40,101325,25,0,0,0,0,0,0,0,0,0,0,0,0,0,0,0,0,0,0,0,0,0,0,0,0,0,0,0,0.9288714528083801,1,0,3
7002,-1.7034885883331299,-9.660964012145996,0,0,0,0,20,5,-40,101325,25,0,0,0,0,0,0,0,0,0,0,0,0,0,0,0,0,0,0,0,0,0,0,0,0,0,0,0,0.9288714528083801,1,0,3
7012,-1.7034885883331299,-9.660964012145996,0,0,0,0,20,5,-40,101325,25,0,0,0,0,0,0,0,0,0,0,0,0,0,0,0,0,0,0,0,0,0,0,0,0,0,0,0,0.9288714528083801,1,0,3
7022,-1.7034885883331299,-9.660964012145996,0,0,0,0,20,5,-40,101325,25,0,0,0,0,0,0,0,0,0,0,0,0,0,0,0,0,0,0,0,0,0,0,0,0,0,0,0,0.9288714528083801,1,0,3
7032,-1.7034885883331299,-9.660964012145996,0,0,0,0,20,5,-40,101325,25,0,0,0,0,0,0,0,0,0,0,0,0,0,0,0,0,0,0,0,0,0,0,0,0,0,0,0,0.9288714528083801,1,0,3
7042,-1.7034885883331299,-9.660964012145996,0,0,0,0,20,5,-40,101325,25,0,0,0,0,0,0,0,0,0,0,0,0,0,0,0,0,0,0,0,0,0,0,0,0,0,0,0,0.9288714528083801,1,0,3
7052,-1.7034885883331299,-9.660964012145996,0,0,0,0,20,5,-40,101325,25,0,0,0,0,0,0,0,0,0,0,0,0,0,0,0,0,0,0,0,0,0,0,0,0,0,0,0,0.9288714528083801,1,0,3
7062,-1.7034885883331299,-9.660964012145996,0,0,0,0,20,5,-40,101325,25,0,0,0,0,0,0,0,0,0,0,0,0,0,0,0,0,0,0,0,0,0,0,0,0,0,0,0,0.9288714528083801,1,0,3
7072,-1.7034885883331299,-9.660964012145996,0,0,0,0,20,5,-40,101325,25,0,0,0,0,0,0,0,0,0,0,0,0,0,0,0,0,0,0,0,0,0,0,0,0,0,0,0,0.9288714528083801,1,0,3
7082,-1.7034885883331299,-9.660964012145996,0,0,0,0,20,5,-40,101325,25,0,0,0,0,0,0,0,0,0,0,0,0,0,0,0,0,0,0,0,0,0,0,0,0,0,0,0,0.9288714528083801,1,0,3
7092,-1.7034885883331299,-9.660964012145996,0,0,0,0,20,5,-40,101325,25,0,0,0,0,0,0,0,0,0,0,0,0,0,0,0,0,0,0,0,0,0,0,0,0,0,0,0,0.9288714528083801,1,0,3
7102,-1.7034885883331299,-9.660964012145996,0,0,0,0,20,5,-40,101325,25,0,0,0,0,0,0,0,0,0,0,0,0,0,0,0,0,0,0,0,0,0,0,0,0,0,0,0,0.9288714528083801,1,0,3
7112,-1.7034885883331299,-9.660964012145996,0,0,0,0,20,5,-40,101325,25,0,0,0,0,0,0,0,0,0,0,0,0,0,0,0,0,0,0,0,0,0,0,0,0,0,0,0,0.9288714528083801,1,0,3
7122,-1.7034885883331299,-9.660964012145996,0,0,0,0,20,5,-40,101325,25,0,0,0,0,0,0,0,0,0,0,0,0,0,0,0,0,0,0,0,0,0,0,0,0,0,0,0,0.9758571982383728,1,0,3
7132,-1.7034885883331299,-9.660964012145996,0,0,0,0,20,5,-40,101325,25,0,0,0,0,0,0,0,0,0,0,0,0,0,0,0,0,0,0,0,0,0,0,0,0,0,0,0,0.9758571982383728,1,0,3
7142,-1.7034885883331299,-9.660964012145996,0,0,0,0,20,5,-40,101325,25,0,0,0,0,0,0,0,0,0,0,0,0,0,0,0,0,0,0,0,0,0,0,0,0,0,0,0,0.9758571982383728,1,0,3
7152,-1.7034885883331299,-9.660964012145996,0,0,0,0,20,5,-40,101325,25,0,0,0,0,0,0,0,0,0,0,0,0,0,0,0,0,0,0,0,0,0,0,0,0,0,0,0,0.9758571982383728,1,0,3
7162,-1.7034885883331299,-9.660964012145996,0,0,0,0,20,5,-40,101325,25,0,0,0,0,0,0,0,0,0,0,0,0,0,0,0,0,0,0,0,0,0,0,0,0,0,0,0,0.9758571982383728,1,0,3
7172,-1.7034885883331299,-9.660964012145996,0,0,0,0,20,5,-40,101325,25,0,0,0,0,0,0,0,0,0,0,0,0,0,0,0,0,0,0,0,0,0,0,0,0,0,0,0,0.9758571982383728,1,0,3
7182,-1.7034885883331299,-9.660964012145996,0,0,0,0,20,5,-40,101325,25,0,0,0,0,0,0,0,0,0,0,0,0,0,0,0,0,0,0,0,0,0,0,0,0,0,0,0,0.9758571982383728,1,0,3
7192,-1.7034885883331299,-9.660964012145996,0,0,0,0,20,5,-40,101325,25,0,0,0,0,0,0,0,0,0,0,0,0,0,0,0,0,0,0,0,0,0,0,0,0,0,0,0,0.9758571982383728,1,0,3
7202,-1.7034885883331299,-9.660964012145996,0,0,0,0,20,5,-40,101325,25,0,0,0,0,0,0,0,0,0,0,0,0,0,0,0,0,0,0,0,0,0,0,0,0,0,0,0,0.9758571982383728,1,0,3
7212,-1.7034885883331299,-9.660964012145996,0,0,0,0,20,5,-40,101325,25,0,0,0,0,0,0,0,0,0,0,0,0,0,0,0,0,0,0,0,0,0,0,0,0,0,0,0,0.9758571982383728,1,0,3
7222,-1.7034885883331299,-9.660964012145996,0,0,0,0,20,5,-40,101325,25,0,0,0,0,0,0,0,0,0,0,0,0,0,0,0,0,0,0,0,0,0,0,0,0,0,0,0,0.9758571982383728,1,0,3
7232,-1.7034885883331299,-9.660964012145996,0,0,0,0,20,5,-40,101325,25,0,0,0,0,0,0,0,0,0,0,0,0,0,0,0,0,0,0,0,0,0,0,0,0,0,0,0,0.9758571982383728,1,0,3
7242,-1.7034885883331299,-9.660964012145996,0,0,0,0,20,5,-40,101325,25,0,0,0,0,0,0,0,0,0,0,0,0,0,0,0,0,0,0,0,0,0,0,0,0,0,0,0,0.9758571982383728,1,0,3
7252,-1.7034885883331299,-9.660964012145996,0,0,0,0,20,5,-40,101325,25,0,0,0,0,0,0,0,0,0,0,0,0,0,0,0,0,0,0,0,0,0,0,0,0,0,0,0,0.9758571982383728,1,0,3
7262,-1.7034885883331299,-9.660964012145996,0,0,0,0,20,5,-40,101325,25,0,0,0,0,0,0,0,0,0,0,0,0,0,0,0,0,0,0,0,0,0,0,0,0,0,0,0,0.9758571982383728,1,0,3
7272,-1.7034885883331299,-9.660964012145996,0,0,0,0,20,5,-40,101325,25,0,0,0,0,0,0,0,0,0,0,0,0,0,0,0,0,0,0,0,0,0,0,0,0,0,0,0,0.9758571982383728,1,0,3
7282,-1.7034885883331299,-9.660964012145996,0,0,0,0,20,5,-40,101325,25,0,0,0,0,0,0,0,0,0,0,0,0,0,0,0,0,0,0,0,0,0,0,0,0,0,0,0,0.9758571982383728,1,0,3
7292,-1.7034885883331299,-9.660964012145996,0,0,0,0,20,5,-40,101325,25,0,0,0,0,0,0,0,0,0,0,0,0,0,0,0,0,0,0,0,0,0,0,0,0,0,0,0,0.9758571982383728,1,0,3
7302,-1.7034885883331299,-9.660964012145996,0,0,0,0,20,5,-40,101325,25,0,0,0,0,0,0,0,0,0,0,0,0,0,0,0,0,0,0,0,0,0,0,0,0,0,0,0,0.9758571982383728,1,0,3
7312,-1.7034885883331299,-9.660964012145996,0,0,0,0,20,5,-40,101325,25,0,0,0,0,0,0,0,0,0,0,0,0,0,0,0,0,0,0,0,0,0,0,0,0,0,0,0,0.9758571982383728,1,0,3
7322,-1.7034885883331299,-9.660964012145996,0,0,0,0,20,5,-40,101325,25,0,0,0,0,0,0,0,0,0,0,0,0,0,0,0,0,0,0,0,0,0,0,0,0,0,0,0,0.9758571982383728,1,0,3
7332,-1.7034885883331299,-9.660964012145996,0,0,0,0,20,5,-40,101325,25,0,0,0,0,0,0,0,0,0,0,0,0,0,0,0,0,0,0,0,0,0,0,0,0,0,0,0,0.9758571982383728,1,0,3
7342,-1.7034885883331299,-9.660964012145996,0,0,0,0,20,5,-40,101325,25,0,0,0,0,0,0,0,0,0,0,0,0,0,0,0,0,0,0,0,0,0,0,0,0,0,0,0,0.9758571982383728,1,0,3
7352,-1.7034885883331299,-9.660964012145996,0,0,0,0,20,5,-40,101325,25,0,0,0,0,0,0,0,0,0,0,0,0,0,0,0,0,0,0,0,0,0,0,0,0,0,0,0,0.9758571982383728,1,0,3
7362,-1.7034885883331299,-9.660964012145996,0,0,0,0,20,5,-40,101325,25,0,0,0,0,0,0,0,0,0,0,0,0,0,0,0,0,0,0,0,0,0,0,0,0,0,0,0,0.9758571982383728,1,0,3
7372,-1.7034885883331299,-9.660964012145996,0,0,0,0,20,5,-40,101325,25,0,0,0,0,0,0,0,0,0,0,0,0,0,0,0,0,0,0,0,0,0,0,0,0,0,0,0,0.9758571982383728,1,0,3
7382,-1.7034885883331299,-9.660964012145996,0,0,0,0,20,5,-40,101325,25,0,0,0,0,0,0,0,0,0,0,0,0,0,0,0,0,0,0,0,0,0,0,0,0,0,0,0,0.9758571982383728,1,0,3
7392,-1.7034885883331299,-9.660964012145996,0,0,0,0,20,5,-40,101325,25,0,0,0,0,0,0,0,0,0,0,0,0,0,0,0,0,0,0,0,0,0,0,0,0,0,0,0,0.9758571982383728,1,0,3
7402,-1.7034885883331299,-9.660964012145996,0,0,0,0,20,5,-40,101325,25,0,0,0,0,0,0,0,0,0,0,0,0,0,0,0,0,0,0,0,0,0,0,0,0,0,0,0,0.9758571982383728,1,0,3
7412,-1.7034885883331299,-9.660964012145996,0,0,0,0,20,5,-40,101325,25,0,0,0,0,0,0,0,0,0,0,0,0,0,0,0,0,0,0,0,0,0,0,0,0,0,0,0,0.9758571982383728,1,0,3
7422,-1.7034885883331299,-9.660964012145996,0,0,0,0,20,5,-40,101325,25,0,0,0,0,0,0,0,0,0,0,0,0,0,0,0,0,0,0,0,0,0,0,0,0,0,0,0,0.9758571982383728,1,0,3
7432,-1.7034885883331299,-9.660964012145996,0,0,0,0,20,5,-40,101325,25,0,0,0,0,0,0,0,0,0,0,0,0,0,0,0,0,0,0,0,0,0,0,0,0,0,0,0,0.9758571982383728,1,0,3
7442,-1.7034885883331299,-9.660964012145996,0,0,0,0,20,5,-40,101325,25,0,0,0,0,0,0,0,0,0,0,0,0,0,0,0,0,0,0,0,0,0,0,0,0,0,0,0,0.9758571982383728,1,0,3
7452,-1.7034885883331299,-9.660964012145996,0,0,0,0,20,5,-40,101325,25,0,0,0,0,0,0,0,0,0,0,0,0,0,0,0,0,0,0,0,0,0,0,0,0,0,0,0,0.9758571982383728,1,0,3
7462,-1.7034885883331299,-9.660964012145996,0,0,0,0,20,5,-40,101325,25,0,0,0,0,0,0,0,0,0,0,0,0,0,0,0,0,0,0,0,0,0,0,0,0,0,0,0,0.9758571982383728,1,0,3
7472,-1.7034885883331299,-9.660964012145996,0,0,0,0,20,5,-40,101325,25,0,0,0,0,0,0,0,0,0,0,0,0,0,0,0,0,0,0,0,0,0,0,0,0,0,0,0,0.9758571982383728,1,0,3
7482,-1.7034885883331299,-9.660964012145996,0,0,0,0,20,5,-40,101325,25,0,0,0,0,0,0,0,0,0,0,0,0,0,0,0,0,0,0,0,0,0,0,0,0,0,0,0,0.9758571982383728,1,0,3
7492,-1.7034885883331299,-9.660964012145996,0,0,0,0,20,5,-40,101325,25,0,0,0,0,0,0,0,0,0,0,0,0,0,0,0,0,0,0,0,0,0,0,0,0,0,0,0,0.9758571982383728,1,0,3
7502,-1.7034885883331299,-9.660964012145996,0,0,0,0,20,5,-40,101325,25,0,0,0,0,0,0,0,0,0,0,0,0,0,0,0,0,0,0,0,0,0,0,0,0,0,0,0,0.9758571982383728,1,0,3
7512,-1.7034885883331299,-9.660964012145996,0,0,0,0,20,5,-40,101325,25,0,0,0,0,0,0,0,0,0,0,0,0,0,0,0,0,0,0,0,0,0,0,0,0,0,0,0,0.9758571982383728,1,0,3
7522,-1.7034885883331299,-9.660964012145996,0,0,0,0,20,5,-40,101325,25,0,0,0,0,0,0,0,0,0,0,0,0,0,0,0,0,0,0,0,0,0,0,0,0,0,0,0,0.9758571982383728,1,0,3
7532,-1.7034885883331299,-9.660964012145996,0,0,0,0,20,5,-40,101325,25,0,0,0,0,0,0,0,0,0,0,0,0,0,0,0,0,0,0,0,0,0,0,0,0,0,0,0,0.9758571982383728,1,0,3
7542,-1.7034885883331299,-9.660964012145996,0,0,0,0,20,5,-40,101325,25,0,0,0,0,0,0,0,0,0,0,0,0,0,0,0,0,0,0,0,0,0,0,0,0,0,0,0,0.9758571982383728,1,0,3
7552,-1.7034885883331299,-9.660964012145996,0,0,0,0,20,5,-40,101325,25,0,0,0,0,0,0,0,0,0,0,0,0,0,0,0,0,0,0,0,0,0,0,0,0,0,0,0,0.9758571982383728,1,0,3
7562,-1.7034885883331299,-9.660964012145996,0,0,0,0,20,5,-40,101325,25,0,0,0,0,0,0,0,0,0,0,0,0,0,0,0,0,0,0,0,0,0,0,0,0,0,0,0,0.9758571982383728,1,0,3
7572,-1.7034885883331299,-9.660964012145996,0,0,0,0,20,5,-40,101325,25,0,0,0,0,0,0,0,0,0,0,0,0,0,0,0,0,0,0,0,0,0,0,0,0,0,0,0,0.9758571982383728,1,0,3
7582,-1.7034885883331299,-9.660964012145996,0,0,0,0,20,5,-40,101325,25,0,0,0,0,0,0,0,0,0,0,0,0,0,0,0,0,0,0,0,0,0,0,0,0,0,0,0,0.9758571982383728,1,0,3
7592,-1.7034885883331299,-9.660964012145996,0,0,0,0,20,5,-40,101325,25,0,0,0,0,0,0,0,0,0,0,0,0,0,0,0,0,0,0,0,0,0,0,0,0,0,0,0,0.9758571982383728,1,0,3
7602,-1.7034885883331299,-9.660964012145996,0,0,0,0,20,5,-40,101325,25,0,0,0,0,0,0,0,0,0,0,0,0,0,0,0,0,0,0,0,0,0,0,0,0,0,0,0,0.9758571982383728,1,0,3
7612,-1.7034885883331299,-9.660964012145996,0,0,0,0,20,5,-40,101325,25,0,0,0,0,0,0,0,0,0,0,0,0,0,0,0,0,0,0,0,0,0,0,0,0,0,0,0,0.9758571982383728,1,0,3
7622,-1.7034885883331299,-9.660964012145996,0,0,0,0,20,5,-40,101325,25,0,0,0,0,0,0,0,0,0,0,0,0,0,0,0,0,0,0,0,0,0,0,0,0,0,0,0,0.9903143644332886,1,0,3
7632,-1.7034885883331299,-9.660964012145996,0,0,0,0,20,5,-40,101325,25,0,0,0,0,0,0,0,0,0,0,0,0,0,0,0,0,0,0,0,0,0,0,0,0,0,0,0,0.9903143644332886,1,0,3
7642,-1.7034885883331299,-9.660964012145996,0,0,0,0,20,5,-40,101325,25,0,0,0,0,0,0,0,0,0,0,0,0,0,0,0,0,0,0,0,0,0,0,0,0,0,0,0,0.9903143644332886,1,0,3
7652,-1.7034885883331299,-9.660964012145996,0,0,0,0,20,5,-40,101325,25,0,0,0,0,0,0,0,0,0,0,0,0,0,0,0,0,0,0,0,0,0,0,0,0,0,0,0,0.9903143644332886,1,0,3
7662,-1.7034885883331299,-9.660964012145996,0,0,0,0,20,5,-40,101325,25,0,0,0,0,0,0,0,0,0,0,0,0,0,0,0,0,0,0,0,0,0,0,0,0,0,0,0,0.9903143644332886,1,0,3
7672,-1.7034885883331299,-9.660964012145996,0,0,0,0,20,5,-40,101325,25,0,0,0,0,0,0,0,0,0,0,0,0,0,0,0,0,0,0,0,0,0,0,0,0,0,0,0,0.9903143644332886,1,0,3
7682,-1.7034885883331299,-9.660964012145996,0,0,0,0,20,5,-40,101325,25,0,0,0,0,0,0,0,0,0,0,0,0,0,0,0,0,0,0,0,0,0,0,0,0,0,0,0,0.9903143644332886,1,0,3
7692,-1.7034885883331299,-9.660964012145996,0,0,0,0,20,5,-40,101325,25,0,0,0,0,0,0,0,0,0,0,0,0,0,0,0,0,0,0,0,0,0,0,0,0,0,0,0,0.9903143644332886,1,0,3
7702,-1.7034885883331299,-9.660964012145996,0,0,0,0,20,5,-40,101325,25,0,0,0,0,0,0,0,0,0,0,0,0,0,0,0,0,0,0,0,0,0,0,0,0,0,0,0,0.9903143644332886,1,0,3
7712,-1.7034885883331299,-9.660964012145996,0,0,0,0,20,5,-40,101325,25,0,0,0,0,0,0,0,0,0,0,0,0,0,0,0,0,0,0,0,0,0,0,0,0,0,0,0,0.9903143644332886,1,0,3
7722,-1.7034885883331299,-9.660964012145996,0,0,0,0,20,5,-40,101325,25,0,0,0,0,0,0,0,0,0,0,0,0,0,0,0,0,0,0,0,0,0,0,0,0,0,0,0,0.9903143644332886,1,0,3
7732,-1.7034885883331299,-9.660964012145996,0,0,0,0,20,5,-40,101325,25,0,0,0,0,0,0,0,0,0,0,0,0,0,0,0,0,0,0,0,0,0,0,0,0,0,0,0,0.9903143644332886,1,0,3
7742,-1.7034885883331299,-9.660964012145996,0,0,0,0,20,5,-40,101325,25,0,0,0,0,0,0,0,0,0,0,0,0,0,0,0,0,0,0,0,0,0,0,0,0,0,0,0,0.9903143644332886,1,0,3
7752,-1.7034885883331299,-9.660964012145996,0,0,0,0,20,5,-40,101325,25,0,0,0,0,0,0,0,0,0,0,0,0,0,0,0,0,0,0,0,0,0,0,0,0,0,0,0,0.9903143644332886,1,0,3
7762,-1.7034885883331299,-9.660964012145996,0,0,0,0,20,5,-40,101325,25,0,0,0,0,0,0,0,0,0,0,0,0,0,0,0,0,0,0,0,0,0,0,0,0,0,0,0,0.9903143644332886,1,0,3
7772,-1.7034885883331299,-9.660964012145996,0,0,0,0,20,5,-40,101325,25,0,0,0,0,0,0,0,0,0,0,0,0,0,0,0,0,0,0,0,0,0,0,0,0,0,0,0,0.9903143644332886,1,0,3
7782,-1.7034885883331299,-9.660964012145996,0,0,0,0,20,5,-40,101325,25,0,0,0,0,0,0,0,0,0,0,0,0,0,0,0,0,0,0,0,0,0,0,0,0,0,0,0,0.9903143644332886,1,0,3
7792,-1.7034885883331299,-9.660964012145996,0,0,0,0,20,5,-40,101325,25,0,0,0,0,0,0,0,0,0,0,0,0,0,0,0,0,0,0,0,0,0,0,0,0,0,0,0,0.9903143644332886,1,0,3
7802,-1.7034885883331299,-9.660964012145996,0,0,0,0,20,5,-40,101325,25,0,0,0,0,0,0,0,0,0,0,0,0,0,0,0,0,0,0,0,0,0,0,0,0,0,0,0,0.9903143644332886,1,0,3
7812,-1.7034885883331299,-9.660964012145996,0,0,0,0,20,5,-40,101325,25,0,0,0,0,0,0,0,0,0,0,0,0,0,0,0,0,0,0,0,0,0,0,0,0,0,0,0,0.9903143644332886,1,0,3
7822,-1.7034885883331299,-9.660964012145996,0,0,0,0,20,5,-40,101325,25,0,0,0,0,0,0,0,0,0,0,0,0,0,0,0,0,0,0,0,0,0,0,0,0,0,0,0,0.9903143644332886,1,0,3
7832,-1.7034885883331299,-9.660964012145996,0,0,0,0,20,5,-40,101325,25,0,0,0,0,0,0,0,0,0,0,0,0,0,0,0,0,0,0,0,0,0,0,0,0,0,0,0,0.9903143644332886,1,0,3
7842,-1.7034885883331299,-9.660964012145996,0,0,0,0,20,5,-40,101325,25,0,0,0,0,0,0,0,0,0,0,0,0,0,0,0,0,0,0,0,0,0,0,0,0,0,0,0,0.9903143644332886,1,0,3
7852,-1.7034885883331299,-9.660964012145996,0,0,0,0,20,5,-40,101325,25,0,0,0,0,0,0,0,0,0,0,0,0,0,0,0,0,0,0,0,0,0,0,0,0,0,0,0,0.9903143644332886,1,0,3
7862,-1.7034885883331299,-9.660964012145996,0,0,0,0,20,5,-40,101325,25,0,0,0,0,0,0,0,0,0,0,0,0,0,0,0,0,0,0,0,0,0,0,0,0,0,0,0,0.9903143644332886,1,0,3
7872,-1.7034885883331299,-9.660964012145996,0,0,0,0,20,5,-40,101325,25,0,0,0,0,0,0,0,0,0,0,0,0,0,0,0,0,0,0,0,0,0,0,0,0,0,0,0,0.9903143644332886,1,0,3
7882,-1.7034885883331299,-9.660964012145996,0,0,0,0,20,5,-40,101325,25,0,0,0,0,0,0,0,0,0,0,0,0,0,0,0,0,0,0,0,0,0,0,0,0,0,0,0,0.9903143644332886,1,0,3
7892,-1.7034885883331299,-9.660964012145996,0,0,0,0,20,5,-40,101325,25,0,0,0,0,0,0,0,0,0,0,0,0,0,0,0,0,0,0,0,0,0,0,0,0,0,0,0,0.9903143644332886,1,0,3
7902,-1.7034885883331299,-9.660964012145996,0,0,0,0,20,5,-40,101325,25,0,0,0,0,0,0,0,0,0,0,0,0,0,0,0,0,0,0,0,0,0,0,0,0,0,0,0,0.9903143644332886,1,0,3
7912,-1.7034885883331299,-9.660964012145996,0,0,0,0,20,5,-40,101325,25,0,0,0,0,0,0,0,0,0,0,0,0,0,0,0,0,0,0,0,0,0,0,0,0,0,0,0,0.9903143644332886,1,0,3
7922,-1.7034885883331299,-9.660964012145996,0,0,0,0,20,5,-40,101325,25,0,0,0,0,0,0,0,0,0,0,0,0,0,0,0,0,0,0,0,0,0,0,0,0,0,0,0,0.9903143644332886,1,0,3
7932,-1.7034885883331299,-9.660964012145996,0,0,0,0,20,5,-40,101325,25,0,0,0,0,0,0,0,0,0,0,0,0,0,0,0,0,0,0,0,0,0,0,0,0,0,0,0,0.9903143644332886,1,0,3
7942,-1.7034885883331299,-9.660964012145996,0,0,0,0,20,5,-40,101325,25,0,0,0,0,0,0,0,0,0,0,0,0,0,0,0,0,0,0,0,0,0,0,0,0,0,0,0,0.9903143644332886,1,0,3
7952,-1.7034885883331299,-9.660964012145996,0,0,0,0,20,5,-40,101325,25,0,0,0,0,0,0,0,0,0,0,0,0,0,0,0,0,0,0,0,0,0,0,0,0,0,0,0,0.9903143644332886,1,0,3
7962,-1.7034885883331299,-9.660964012145996,0,0,0,0,20,5,-40,101325,25,0,0,0,0,0,0,0,0,0,0,0,0,0,0,0,0,0,0,0,0,0,0,0,0,0,0,0,0.9903143644332886,1,0,3
7972,-1.7034885883331299,-9.660964012145996,0,0,0,0,20,5,-40,101325,25,0,0,0,0,0,0,0,0,0,0,0,0,0,0,0,0,0,0,0,0,0,0,0,0,0,0,0,0.9903143644332886,1,0,3
7982,-1.7034885883331299,-9.660964012145996,0,0,0,0,20,5,-40,101325,25,0,0,0,0,0,0,0,0,0,0,0,0,0,0,0,0,0,0,0,0,0,0,0,0,0,0,0,0.9903143644332886,1,0,3
7992,-1.7034885883331299,-9.660964012145996,0,0,0,0,20,5,-40,101325,25,0,0,0,0,0,0,0,0,0,0,0,0,0,0,0,0,0,0,0,0,0,0,0,0,0,0,0,0.9903143644332886,1,0,3
8002,-1.7034885883331299,-9.660964012145996,0,0,0,0,20,5,-40,101325,25,0,0,0,0,0,0,0,0,0,0,0,0,0,0,0,0,0,0,0,0,0,0,0,0,0,0,0,0.9903143644332886,1,0,3
8012,-1.7034885883331299,-9.660964012145996,0,0,0,0,20,5,-40,101325,25,0,0,0,0,0,0,0,0,0,0,0,0,0,0,0,0,0,0,0,0,0,0,0,0,0,0,0,0.9903143644332886,1,0,3
8022,-1.7034885883331299,-9.660964012145996,0,0,0,0,20,5,-40,101325,25,0,0,0,0,0,0,0,0,0,0,0,0,0,0,0,0,0,0,0,0,0,0,0,0,0,0,0,0.9903143644332886,1,0,3
8032,-1.7034885883331299,-9.660964012145996,0,0,0,0,20,5,-40,101325,25,0,0,0,0,0,0,0,0,0,0,0,0,0,0,0,0,0,0,0,0,0,0,0,0,0,0,0,0.9903143644332886,1,0,3
8042,-1.7034885883331299,-9.660964012145996,0,0,0,0,20,5,-40,101325,25,0,0,0,0,0,0,0,0,0,0,0,0,0,0,0,0,0,0,0,0,0,0,0,0,0,0,0,0.9903143644332886,1,0,3
8052,-1.7034885883331299,-9.660964012145996,0,0,0,0,20,5,-40,101325,25,0,0,0,0,0,0,0,0,0,0,0,0,0,0,0,0,0,0,0,0,0,0,0,0,0,0,0,0.9903143644332886,1,0,3
8062,-1.7034885883331299,-9.660964012145996,0,0,0,0,20,5,-40,101325,25,0,0,0,0,0,0,0,0,0,0,0,0,0,0,0,0,0,0,0,0,0,0,0,0,0,0,0,0.9903143644332886,1,0,3
8072,-1.7034885883331299,-9.660964012145996,0,0,0,0,20,5,-40,101325,25,0,0,0,0,0,0,0,0,0,0,0,0,0,0,0,0,0,0,0,0,0,0,0,0,0,0,0,0.9903143644332886,1,0,3
8082,-1.7034885883331299,-9.660964012145996,0,0,0,0,20,5,-40,101325,25,0,0,0,0,0,0,0,0,0,0,0,0,0,0,0,0,0,0,0,0,0,0,0,0,0,0,0,0.9903143644332886,1,0,3
8092,-1.7034885883331299,-9.660964012145996,0,0,0,0,20,5,-40,101325,25,0,0,0,0,0,0,0,0,0,0,0,0,0,0,0,0,0,0,0,0,0,0,0,0,0,0,0,0.9903143644332886,1,0,3
8102,-1.7034885883331299,-9.660964012145996,0,0,0,0,20,5,-40,101325,25,0,0,0,0,0,0,0,0,0,0,0,0,0,0,0,0,0,0,0,0,0,0,0,0,0,0,0,0.9903143644332886,1,0,3
8112,-1.7034885883331299,-9.660964012145996,0,0,0,0,20,5,-40,101325,25,0,0,0,0,0,0,0,0,0,0,0,0,0,0,0,0,0,0,0,0,0,0,0,0,0,0,0,0.9903143644332886,1,0,3
8122,-1.7034885883331299,-9.660964012145996,0,0,0,0,20,5,-40,101325,25,0,0,0,0,0,0,0,0,0,0,0,0,0,0,0,0,0,0,0,0,0,0,0,0,0,0,0,0.9939286112785339,1,0,3
8132,-1.7034885883331299,-9.660964012145996,0,0,0,0,20,5,-40,101325,25,0,0,0,0,0,0,0,0,0,0,0,0,0,0,0,0,0,0,0,0,0,0,0,0,0,0,0,0.9939286112785339,1,0,3
8142,-1.7034885883331299,-9.660964012145996,0,0,0,0,20,5,-40,101325,25,0,0,0,0,0,0,0,0,0,0,0,0,0,0,0,0,0,0,0,0,0,0,0,0,0,0,0,0.9939286112785339,1,0,3
8152,-1.7034885883331299,-9.660964012145996,0,0,0,0,20,5,-40,101325,25,0,0,0,0,0,0,0,0,0,0,0,0,0,0,0,0,0,0,0,0,0,0,0,0,0,0,0,0.9939286112785339,1,0,3
8162,-1.7034885883331299,-9.660964012145996,0,0,0,0,20,5,-40,101325,25,0,0,0,0,0,0,0,0,0,0,0,0,0,0,0,0,0,0,0,0,0,0,0,0,0,0,0,0.9939286112785339,1,0,3
8172,-1.7034885883331299,-9.660964012145996,0,0,0,0,20,5,-40,101325,25,0,0,0,0,0,0,0,0,0,0,0,0,0,0,0,0,0,0,0,0,0,0,0,0,0,0,0,0.9939286112785339,1,0,3
8182,-1.7034885883331299,-9.660964012145996,0,0,0,0,20,5,-40,101325,25,0,0,0,0,0,0,0,0,0,0,0,0,0,0,0,0,0,0,0,0,0,0,0,0,0,0,0,0.9939286112785339,1,0,3
8192,-1.7034885883331299,-9.660964012145996,0,0,0,0,20,5,-40,101325,25,0,0,0,0,0,0,0,0,0,0,0,0,0,0,0,0,0,0,0,0,0,0,0,0,0,0,0,0.9939286112785339,1,0,3
8202,-1.7034885883331299,-9.660964012145996,0,0,0,0,20,5,-40,101325,25,0,0,0,0,0,0,0,0,0,0,0,0,0,0,0,0,0,0,0,0,0,0,0,0,0,0,0,0.9939286112785339,1,0,3
8212,-1.7034885883331299,-9.660964012145996,0,0,0,0,20,5,-40,101325,25,0,0,0,0,0,0,0,0,0,0,0,0,0,0,0,0,0,0,0,0,0,0,0,0,0,0,0,0.9939286112785339,1,0,3
8222,-1.7034885883331299,-9.660964012145996,0,0,0,0,20,5,-40,101325,25,0,0,0,0,0,0,0,0,0,0,0,0,0,0,0,0,0,0,0,0,0,0,0,0,0,0,0,0.9939286112785339,1,0,3
8232,-1.7034885883331299,-9.660964012145996,0,0,0,0,20,5,-40,101325,25,0,0,0,0,0,0,0,0,0,0,0,0,0,0,0,0,0,0,0,0,0,0,0,0,0,0,0,0.9939286112785339,1,0,3
8242,-1.7034885883331299,-9.660964012145996,0,0,0,0,20,5,-40,101325,25,0,0,0,0,0,0,0,0,0,0,0,0,0,0,0,0,0,0,0,0,0,0,0,0,0,0,0,0.9939286112785339,1,0,3
8252,-1.7034885883331299,-9.660964012145996,0,0,0,0,20,5,-40,101325,25,0,0,0,0,0,0,0,0,0,0,0,0,0,0,0,0,0,0,0,0,0,0,0,0,0,0,0,0.9939286112785339,1,0,3
8262,-1.7034885883331299,-9.660964012145996,0,0,0,0,20,5,-40,101325,25,0,0,0,0,0,0,0,0,0,0,0,0,0,0,0,0,0,0,0,0,0,0,0,0,0,0,0,0.9939286112785339,1,0,3
8272,-1.7034885883331299,-9.660964012145996,0,0,0,0,20,5,-40,101325,25,0,0,0,0,0,0,0,0,0,0,0,0,0,0,0,0,0,0,0,0,0,0,0,0,0,0,0,0.9939286112785339,1,0,3
8282,-1.7034885883331299,-9.660964012145996,0,0,0,0,20,5,-40,101325,25,0,0,0,0,0,0,0,0,0,0,0,0,0,0,0,0,0,0,0,0,0,0,0,0,0,0,0,0.9939286112785339,1,0,3
8292,-1.7034885883331299,-9.660964012145996,0,0,0,0,20,5,-40,101325,25,0,0,0,0,0,0,0,0,0,0,0,0,0,0,0,0,0,0,0,0,0,0,0,0,0,0,0,0.9939286112785339,1,0,3
8302,-1.7034885883331299,-9.660964012145996,0,0,0,0,20,5,-40,101325,25,0,0,0,0,0,0,0,0,0,0,0,0,0,0,0,0,0,0,0,0,0,0,0,0,0,0,0,0.9939286112785339,1,0,3
8312,-1.7034885883331299,-9.660964012145996,0,0,0,0,20,5,-40,101325,25,0,0,0,0,0,0,0,0,0,0,0,0,0,0,0,0,0,0,0,0,0,0,0,0,0,0,0,0.9939286112785339,1,0,3
8322,-1.7034885883331299,-9.660964012145996,0,0,0,0,20,5,-40,101325,25,0,0,0,0,0,0,0,0,0,0,0,0,0,0,0,0,0,0,0,0,0,0,0,0,0,0,0,0.9939286112785339,1,0,3
8332,-1.7034885883331299,-9.660964012145996,0,0,0,0,20,5,-40,101325,25,0,0,0,0,0,0,0,0,0,0,0,0,0,0,0,0,0,0,0,0,0,0,0,0,0,0,0,0.9939286112785339,1,0,3
8342,-1.7034885883331299,-9.660964012145996,0,0,0,0,20,5,-40,101325,25,0,0,0,0,0,0,0,0,0,0,0,0,0,0,0,0,0,0,0,0,0,0,0,0,0,0,0,0.9939286112785339,1,0,3
8352,-1.7034885883331299,-9.660964012145996,0,0,0,0,20,5,-40,101325,25,0,0,0,0,0,0,0,0,0,0,0,0,0,0,0,0,0,0,0,0,0,0,0,0,0,0,0,0.9939286112785339,1,0,3
8362,-1.7034885883331299,-9.660964012145996,0,0,0,0,20,5,-40,101325,25,0,0,0,0,0,0,0,0,0,0,0,0,0,0,0,0,0,0,0,0,0,0,0,0,0,0,0,0.9939286112785339,1,0,3
8372,-1.7034885883331299,-9.660964012145996,0,0,0,0,20,5,-40,101325,25,0,0,0,0,0,0,0,0,0,0,0,0,0,0,0,0,0,0,0,0,0,0,0,0,0,0,0,0.9939286112785339,1,0,3
8382,-1.7034885883331299,-9.660964012145996,0,0,0,0,20,5,-40,101325,25,0,0,0,0,0,0,0,0,0,0,0,0,0,0,0,0,0,0,0,0,0,0,0,0,0,0,0,0.9939286112785339,1,0,3
8392,-1.7034885883331299,-9.660964012145996,0,0,0,0,20,5,-40,101325,25,0,0,0,0,0,0,0,0,0,0,0,0,0,0,0,0,0,0,0,0,0,0,0,0,0,0,0,0.9939286112785339,1,0,3
8402,-1.7034885883331299,-9.660964012145996,0,0,0,0,20,5,-40,101325,25,0,0,0,0,0,0,0,0,0,0,0,0,0,0,0,0,0,0,0,0,0,0,0,0,0,0,0,0.9939286112785339,1,0,3
8412,-1.7034885883331299,-9.660964012145996,0,0,0,0,20,5,-40,101325,25,0,0,0,0,0,0,0,0,0,0,0,0,0,0,0,0,0,0,0,0,0,0,0,0,0,0,0,0.9939286112785339,1,0,3
8422,-1.7034885883331299,-9.660964012145996,0,0,0,0,20,5,-40,101325,25,0,0,0,0,0,0,0,0,0,0,0,0,0,0,0,0,0,0,0,0,0,0,0,0,0,0,0,0.9939286112785339,1,0,3
8432,-1.7034885883331299,-9.660964012145996,0,0,0,0,20,5,-40,101325,25,0,0,0,0,0,0,0,0,0,0,0,0,0,0,0,0,0,0,0,0,0,0,0,0,0,0,0,0.9939286112785339,1,0,3
8442,-1.7034885883331299,-9.660964012145996,0,0,0,0,20,5,-40,101325,25,0,0,0,0,0,0,0,0,0,0,0,0,0,0,0,0,0,0,0,0,0,0,0,0,0,0,0,0.9939286112785339,1,0,3
8452,-1.7034885883331299,-9.660964012145996,0,0,0,0,20,5,-40,101325,25,0,0,0,0,0,0,0,0,0,0,0,0,0,0,0,0,0,0,0,0,0,0,0,0,0,0,0,0.9939286112785339,1,0,3
8462,-1.7034885883331299,-9.660964012145996,0,0,0,0,20,5,-40,101325,25,0,0,0,0,0,0,0,0,0,0,0,0,0,0,0,0,0,0,0,0,0,0,0,0,0,0,0,0.9939286112785339,1,0,3
8472,-1.7034885883331299,-9.660964012145996,0,0,0,0,20,5,-40,101325,25,0,0,0,0,0,0,0,0,0,0,0,0,0,0,0,0,0,0,0,0,0,0,0,0,0,0,0,0.9939286112785339,1,0,3
8482,-1.7034885883331299,-9.660964012145996,0,0,0,0,20,5,-40,101325,25,0,0,0,0,0,0,0,0,0,0,0,0,0,0,0,0,0,0,0,0,0,0,0,0,0,0,0,0.9939286112785339,1,0,3
8492,-1.7034885883331299,-9.660964012145996,0,0,0,0,20,5,-40,101325,25,0,0,0,0,0,0,0,0,0,0,0,0,0,0,0,0,0,0,0,0,0,0,0,0,0,0,0,0.9939286112785339,1,0,3
8502,-1.7034885883331299,-9.660964012145996,0,0,0,0,20,5,-40,101325,25,0,0,0,0,0,0,0,0,0,0,0,0,0,0,0,0,0,0,0,0,0,0,0,0,0,0,0,0.9939286112785339,1,0,3
8512,-1.7034885883331299,-9.660964012145996,0,0,0,0,20,5,-40,101325,25,0,0,0,0,0,0,0,0,0,0,0,0,0,0,0,0,0,0,0,0,0,0,0,0,0,0,0,0.9939286112785339,1,0,3
8522,-1.7034885883331299,-9.660964012145996,0,0,0,0,20,5,-40,101325,25,0,0,0,0,0,0,0,0,0,0,0,0,0,0,0,0,0,0,0,0,0,0,0,0,0,0,0,0.9939286112785339,1,0,3
8532,-1.7034885883331299,-9.660964012145996,0,0,0,0,20,5,-40,101325,25,0,0,0,0,0,0,0,0,0,0,0,0,0,0,0,0,0,0,0,0,0,0,0,0,0,0,0,0.9939286112785339,1,0,3
8542,-1.7034885883331299,-9.660964012145996,0,0,0,0,20,5,-40,101325,25,0,0,0,0,0,0,0,0,0,0,0,0,0,0,0,0,0,0,0,0,0,0,0,0,0,0,0,0.9939286112785339,1,0,3
8552,-1.7034885883331299,-9.660964012145996,0,0,0,0,20,5,-40,101325,25,0,0,0,0,0,0,0,0,0,0,0,0,0,0,0,0,0,0,0,0,0,0,0,0,0,0,0,0.9939286112785339,1,0,3
8562,-1.7034885883331299,-9.660964012145996,0,0,0,0,20,5,-40,101325,25,0,0,0,0,0,0,0,0,0,0,0,0,0,0,0,0,0,0,0,0,0,0,0,0,0,0,0,0.9939286112785339,1,0,3
8572,-1.7034885883331299,-9.660964012145996,0,0,0,0,20,5,-40,101325,25,0,0,0,0,0,0,0,0,0,0,0,0,0,0,0,0,0,0,0,0,0,0,0,0,0,0,0,0.9939286112785339,1,0,3
8582,-1.7034885883331299,-9.660964012145996,0,0,0,0,20,5,-40,101325,25,0,0,0,0,0,0,0,0,0,0,0,0,0,0,0,0,0,0,0,0,0,0,0,0,0,0,0,0.9939286112785339,1,0,3
8592,-1.7034885883331299,-9.660964012145996,0,0,0,0,20,5,-40,101325,25,0,0,0,0,0,0,0,0,0,0,0,0,0,0,0,0,0,0,0,0,0,0,0,0,0,0,0,0.9939286112785339,1,0,3
8602,-1.7034885883331299,-9.660964012145996,0,0,0,0,20,5,-40,101325,25,0,0,0,0,0,0,0,0,0,0,0,0,0,0,0,0,0,0,0,0,0,0,0,0,0,0,0,0.9939286112785339,1,0,3
8612,-1.7034885883331299,-9.660964012145996,0,0,0,0,20,5,-40,101325,25,0,0,0,0,0,0,0,0,0,0,0,0,0,0,0,0,0,0,0,0,0,0,0,0,0,0,0,0.9939286112785339,1,0,3
8622,-1.7034885883331299,-9.660964012145996,0,0,0,0,20,5,-40,101325,25,0,0,0,0,0,0,0,0,0,0,0,0,0,0,0,0,0,0,0,0,0,0,0,0,0,0,0,0.9903143644332886,1,0,3
8632,-1.7034885883331299,-9.660964012145996,0,0,0,0,20,5,-40,101325,25,0,0,0,0,0,0,0,0,0,0,0,0,0,0,0,0,0,0,0,0,0,0,0,0,0,0,0,0.9903143644332886,1,0,3
8642,-1.7034885883331299,-9.660964012145996,0,0,0,0,20,5,-40,101325,25,0,0,0,0,0,0,0,0,0,0,0,0,0,0,0,0,0,0,0,0,0,0,0,0,0,0,0,0.9903143644332886,1,0,3
8652,-1.7034885883331299,-9.660964012145996,0,0,0,0,20,5,-40,101325,25,0,0,0,0,0,0,0,0,0,0,0,0,0,0,0,0,0,0,0,0,0,0,0,0,0,0,0,0.9903143644332886,1,0,3
8662,-1.7034885883331299,-9.660964012145996,0,0,0,0,20,5,-40,101325,25,0,0,0,0,0,0,0,0,0,0,0,0,0,0,0,0,0,0,0,0,0,0,0,0,0,0,0,0.9903143644332886,1,0,3
8672,-1.7034885883331299,-9.660964012145996,0,0,0,0,20,5,-40,101325,25,0,0,0,0,0,0,0,0,0,0,0,0,0,0,0,0,0,0,0,0,0,0,0,0,0,0,0,0.9903143644332886,1,0,3
8682,-1.7034885883331299,-9.660964012145996,0,0,0,0,20,5,-40,101325,25,0,0,0,0,0,0,0,0,0,0,0,0,0,0,0,0,0,0,0,0,0,0,0,0,0,0,0,0.9903143644332886,1,0,3
8692,-1.7034885883331299,-9.660964012145996,0,0,0,0,20,5,-40,101325,25,0,0,0,0,0,0,0,0,0,0,0,0,0,0,0,0,0,0,0,0,0,0,0,0,0,0,0,0.9903143644332886,1,0,3
8702,-1.7034885883331299,-9.660964012145996,0,0,0,0,20,5,-40,101325,25,0,0,0,0,0,0,0,0,0,0,0,0,0,0,0,0,0,0,0,0,0,0,0,0,0,0,0,0.9903143644332886,1,0,3
8712,-1.7034885883331299,-9.660964012145996,0,0,0,0,20,5,-40,101325,25,0,0,0,0,0,0,0,0,0,0,0,0,0,0,0,0,0,0,0,0,0,0,0,0,0,0,0,0.9903143644332886,1,0,3
8722,-1.7034885883331299,-9.660964012145996,0,0,0,0,20,5,-40,101325,25,0,0,0,0,0,0,0,0,0,0,0,0,0,0,0,0,0,0,0,0,0,0,0,0,0,0,0,0.9903143644332886,1,0,3
8732,-1.7034885883331299,-9.660964012145996,0,0,0,0,20,5,-40,101325,25,0,0,0,0,0,0,0,0,0,0,0,0,0,0,0,0,0,0,0,0,0,0,0,0,0,0,0,0.9903143644332886,1,0,3
8742,-1.7034885883331299,-9.660964012145996,0,0,0,0,20,5,-40,101325,25,0,0,0,0,0,0,0,0,0,0,0,0,0,0,0,0,0,0,0,0,0,0,0,0,0,0,0,0.9903143644332886,1,0,3
8752,-1.7034885883331299,-9.660964012145996,0,0,0,0,20,5,-40,101325,25,0,0,0,0,0,0,0,0,0,0,0,0,0,0,0,0,0,0,0,0,0,0,0,0,0,0,0,0.9903143644332886,1,0,3
8762,-1.7034885883331299,-9.660964012145996,0,0,0,0,20,5,-40,101325,25,0,0,0,0,0,0,0,0,0,0,0,0,0,0,0,0,0,0,0,0,0,0,0,0,0,0,0,0.9903143644332886,1,0,3
8772,-1.7034885883331299,-9.660964012145996,0,0,0,0,20,5,-40,101325,25,0,0,0,0,0,0,0,0,0,0,0,0,0,0,0,0,0,0,0,0,0,0,0,0,0,0,0,0.9903143644332886,1,0,3
8782,-1.7034885883331299,-9.660964012145996,0,0,0,0,20,5,-40,101325,25,0,0,0,0,0,0,0,0,0,0,0,0,0,0,0,0,0,0,0,0,0,0,0,0,0,0,0,0.9903143644332886,1,0,3
8792,-1.7034885883331299,-9.660964012145996,0,0,0,0,20,5,-40,101325,25,0,0,0,0,0,0,0,0,0,0,0,0,0,0,0,0,0,0,0,0,0,0,0,0,0,0,0,0.9903143644332886,1,0,3
8802,-1.7034885883331299,-9.660964012145996,0,0,0,0,20,5,-40,101325,25,0,0,0,0,0,0,0,0,0,0,0,0,0,0,0,0,0,0,0,0,0,0,0,0,0,0,0,0.9903143644332886,1,0,3
8812,-1.7034885883331299,-9.660964012145996,0,0,0,0,20,5,-40,101325,25,0,0,0,0,0,0,0,0,0,0,0,0,0,0,0,0,0,0,0,0,0,0,0,0,0,0,0,0.9903143644332886,1,0,3
8822,-1.7034885883331299,-9.660964012145996,0,0,0,0,20,5,-40,101325,25,0,0,0,0,0,0,0,0,0,0,0,0,0,0,0,0,0,0,0,0,0,0,0,0,0,0,0,0.9903143644332886,1,0,3
8832,-1.7034885883331299,-9.660964012145996,0,0,0,0,20,5,-40,101325,25,0,0,0,0,0,0,0,0,0,0,0,0,0,0,0,0,0,0,0,0,0,0,0,0,0,0,0,0.9903143644332886,1,0,3
8842,-1.7034885883331299,-9.660964012145996,0,0,0,0,20,5,-40,101325,25,0,0,0,0,0,0,0,0,0,0,0,0,0,0,0,0,0,0,0,0,0,0,0,0,0,0,0,0.9903143644332886,1,0,3
8852,-1.7034885883331299,-9.660964012145996,0,0,0,0,20,5,-40,101325,25,0,0,0,0,0,0,0,0,0,0,0,0,0,0,0,0,0,0,0,0,0,0,0,0,0,0,0,0.9903143644332886,1,0,3
8862,-1.7034885883331299,-9.660964012145996,0,0,0,0,20,5,-40,101325,25,0,0,0,0,0,0,0,0,0,0,0,0,0,0,0,0,0,0,0,0,0,0,0,0,0,0,0,0.9903143644332886,1,0,3
8872,-1.7034885883331299,-9.660964012145996,0,0,0,0,20,5,-40,101325,25,0,0,0,0,0,0,0,0,0,0,0,0,0,0,0,0,0,0,0,0,0,0,0,0,0,0,0,0.9903143644332886,1,0,3
8882,-1.7034885883331299,-9.660964012145996,0,0,0,0,20,5,-40,101325,25,0,0,0,0,0,0,0,0,0,0,0,0,0,0,0,0,0,0,0,0,0,0,0,0,0,0,0,0.9903143644332886,1,0,3
8892,-1.7034885883331299,-9.660964012145996,0,0,0,0,20,5,-40,101325,25,0,0,0,0,0,0,0,0,0,0,0,0,0,0,0,0,0,0,0,0,0,0,0,0,0,0,0,0.9903143644332886,1,0,3
8902,-1.7034885883331299,-9.660964012145996,0,0,0,0,20,5,-40,101325,25,0,0,0,0,0,0,0,0,0,0,0,0,0,0,0,0,0,0,0,0,0,0,0,0,0,0,0,0.9903143644332886,1,0,3
8912,-1.7034885883331299,-9.660964012145996,0,0,0,0,20,5,-40,101325,25,0,0,0,0,0,0,0,0,0,0,0,0,0,0,0,0,0,0,0,0,0,0,0,0,0,0,0,0.9903143644332886,1,0,3
8922,-1.7034885883331299,-9.660964012145996,0,0,0,0,20,5,-40,101325,25,0,0,0,0,0,0,0,0,0,0,0,0,0,0,0,0,0,0,0,0,0,0,0,0,0,0,0,0.9903143644332886,1,0,3
8932,-1.7034885883331299,-9.660964012145996,0,0,0,0,20,5,-40,101325,25,0,0,0,0,0,0,0,0,0,0,0,0,0,0,0,0,0,0,0,0,0,0,0,0,0,0,0,0.9903143644332886,1,0,3
8942,-1.7034885883331299,-9.660964012145996,0,0,0,0,20,5,-40,101325,25,0,0,0,0,0,0,0,0,0,0,0,0,0,0,0,0,0,0,0,0,0,0,0,0,0,0,0,0.9903143644332886,1,0,3
8952,-1.7034885883331299,-9.660964012145996,0,0,0,0,20,5,-40,101325,25,0,0,0,0,0,0,0,0,0,0,0,0,0,0,0,0,0,0,0,0,0,0,0,0,0,0,0,0.9903143644332886,1,0,3
8962,-1.7034885883331299,-9.660964012145996,0,0,0,0,20,5,-40,101325,25,0,0,0,0,0,0,0,0,0,0,0,0,0,0,0,0,0,0,0,0,0,0,0,0,0,0,0,0.9903143644332886,1,0,3
8972,-1.7034885883331299,-9.660964012145996,0,0,0,0,20,5,-40,101325,25,0,0,0,0,0,0,0,0,0,0,0,0,0,0,0,0,0,0,0,0,0,0,0,0,0,0,0,0.9903143644332886,1,0,3
8982,-1.7034885883331299,-9.660964012145996,0,0,0,0,20,5,-40,101325,25,0,0,0,0,0,0,0,0,0,0,0,0,0,0,0,0,0,0,0,0,0,0,0,0,0,0,0,0.9903143644332886,1,0,3
8992,-1.7034885883331299,-9.660964012145996,0,0,0,0,20,5,-40,101325,25,0,0,0,0,0,0,0,0,0,0,0,0,0,0,0,0,0,0,0,0,0,0,0,0,0,0,0,0.9903143644332886,1,0,3
9002,-1.7034885883331299,-9.660964012145996,0,0,0,0,20,5,-40,101325,25,0,0,0,0,0,0,0,0,0,0,0,0,0,0,0,0,0,0,0,0,0,0,0,0,0,0,0,0.9903143644332886,1,0,3
9012,-1.7034885883331299,-9.660964012145996,0,0,0,0,20,5,-40,101325,25,0,0,0,0,0,0,0,0,0,0,0,0,0,0,0,0,0,0,0,0,0,0,0,0,0,0,0,0.9903143644332886,1,0,3
9022,-1.7034885883331299,-9.660964012145996,0,0,0,0,20,5,-40,101325,25,0,0,0,0,0,0,0,0,0,0,0,0,0,0,0,0,0,0,0,0,0,0,0,0,0,0,0,0.9903143644332886,1,0,3
9032,-1.7034885883331299,-9.660964012145996,0,0,0,0,20,5,-40,101325,25,0,0,0,0,0,0,0,0,0,0,0,0,0,0,0,0,0,0,0,0,0,0,0,0,0,0,0,0.9903143644332886,1,0,3
9042,-1.7034885883331299,-9.660964012145996,0,0,0,0,20,5,-40,101325,25,0,0,0,0,0,0,0,0,0,0,0,0,0,0,0,0,0,0,0,0,0,0,0,0,0,0,0,0.9903143644332886,1,0,3
9052,-1.7034885883331299,-9.660964012145996,0,0,0,0,20,5,-40,101325,25,0,0,0,0,0,0,0,0,0,0,0,0,0,0,0,0,0,0,0,0,0,0,0,0,0,0,0,0.9903143644332886,1,0,3
9062,-1.7034885883331299,-9.660964012145996,0,0,0,0,20,5,-40,101325,25,0,0,0,0,0,0,0,0,0,0,0,0,0,0,0,0,0,0,0,0,0,0,0,0,0,0,0,0.9903143644332886,1,0,3
9072,-1.7034885883331299,-9.660964012145996,0,0,0,0,20,5,-40,101325,25,0,0,0,0,0,0,0,0,0,0,0,0,0,0,0,0,0,0,0,0,0,0,0,0,0,0,0,0.9903143644332886,1,0,3
9082,-1.7034885883331299,-9.660964012145996,0,0,0,0,20,5,-40,101325,25,0,0,0,0,0,0,0,0,0,0,0,0,0,0,0,0,0,0,0,0,0,0,0,0,0,0,0,0.9903143644332886,1,0,3
9092,-1.7034885883331299,-9.660964012145996,0,0,0,0,20,5,-40,101325,25,0,0,0,0,0,0,0,0,0,0,0,0,0,0,0,0,0,0,0,0,0,0,0,0,0,0,0,0.9903143644332886,1,0,3
9102,-1.7034885883331299,-9.660964012145996,0,0,0,0,20,5,-40,101325,25,0,0,0,0,0,0,0,0,0,0,0,0,0,0,0,0,0,0,0,0,0,0,0,0,0,0,0,0.9903143644332886,1,0,3
9112,-1.7034885883331299,-9.660964012145996,0,0,0,0,20,5,-40,101325,25,0,0,0,0,0,0,0,0,0,0,0,0,0,0,0,0,0,0,0,0,0,0,0,0,0,0,0,0.9903143644332886,1,0,3
9122,-1.7034885883331299,-9.660964012145996,0,0,0,0,20,5,-40,101325,25,0,0,0,0,0,0,0,0,0,0,0,0,0,0,0,0,0,0,0,0,0,0,0,0,0,0,0,0.9722429513931274,1,0,3
9132,-1.7034885883331299,-9.660964012145996,0,0,0,0,20,5,-40,101325,25,0,0,0,0,0,0,0,0,0,0,0,0,0,0,0,0,0,0,0,0,0,0,0,0,0,0,0,0.9722429513931274,1,0,3
9142,-1.7034885883331299,-9.660964012145996,0,0,0,0,20,5,-40,101325,25,0,0,0,0,0,0,0,0,0,0,0,0,0,0,0,0,0,0,0,0,0,0,0,0,0,0,0,0.9722429513931274,1,0,3
9152,-1.7034885883331299,-9.660964012145996,0,0,0,0,20,5,-40,101325,25,0,0,0,0,0,0,0,0,0,0,0,0,0,0,0,0,0,0,0,0,0,0,0,0,0,0,0,0.9722429513931274,1,0,3
9162,-1.7034885883331299,-9.660964012145996,0,0,0,0,20,5,-40,101325,25,0,0,0,0,0,0,0,0,0,0,0,0,0,0,0,0,0,0,0,0,0,0,0,0,0,0,0,0.9722429513931274,1,0,3
9172,-1.7034885883331299,-9.660964012145996,0,0,0,0,20,5,-40,101325,25,0,0,0,0,0,0,0,0,0,0,0,0,0,0,0,0,0,0,0,0,0,0,0,0,0,0,0,0.9722429513931274,1,0,3
9182,-1.7034885883331299,-9.660964012145996,0,0,0,0,20,5,-40,101325,25,0,0,0,0,0,0,0,0,0,0,0,0,0,0,0,0,0,0,0,0,0,0,0,0,0,0,0,0.9722429513931274,1,0,3
9192,-1.7034885883331299,-9.660964012145996,0,0,0,0,20,5,-40,101325,25,0,0,0,0,0,0,0,0,0,0,0,0,0,0,0,0,0,0,0,0,0,0,0,0,0,0,0,0.9722429513931274,1,0,3
9202,-1.7034885883331299,-9.660964012145996,0,0,0,0,20,5,-40,101325,25,0,0,0,0,0,0,0,0,0,0,0,0,0,0,0,0,0,0,0,0,0,0,0,0,0,0,0,0.9722429513931274,1,0,3
9212,-1.7034885883331299,-9.660964012145996,0,0,0,0,20,5,-40,101325,25,0,0,0,0,0,0,0,0,0,0,0,0,0,0,0,0,0,0,0,0,0,0,0,0,0,0,0,0.9722429513931274,1,0,3
9222,-1.7034885883331299,-9.660964012145996,0,0,0,0,20,5,-40,101325,25,0,0,0,0,0,0,0,0,0,0,0,0,0,0,0,0,0,0,0,0,0,0,0,0,0,0,0,0.9722429513931274,1,0,3
9232,-1.7034885883331299,-9.660964012145996,0,0,0,0,20,5,-40,101325,25,0,0,0,0,0,0,0,0,0,0,0,0,0,0,0,0,0,0,0,0,0,0,0,0,0,0,0,0.9722429513931274,1,0,3
9242,-1.7034885883331299,-9.660964012145996,0,0,0,0,20,5,-40,101325,25,0,0,0,0,0,0,0,0,0,0,0,0,0,0,0,0,0,0,0,0,0,0,0,0,0,0,0,0.9722429513931274,1,0,3
9252,-1.7034885883331299,-9.660964012145996,0,0,0,0,20,5,-40,101325,25,0,0,0,0,0,0,0,0,0,0,0,0,0,0,0,0,0,0,0,0,0,0,0,0,0,0,0,0.9722429513931274,1,0,3
9262,-1.7034885883331299,-9.660964012145996,0,0,0,0,20,5,-40,101325,25,0,0,0,0,0,0,0,0,0,0,0,0,0,0,0,0,0,0,0,0,0,0,0,0,0,0,0,0.9722429513931274,1,0,3
9272,-1.7034885883331299,-9.660964012145996,0,0,0,0,20,5,-40,101325,25,0,0,0,0,0,0,0,0,0,0,0,0,0,0,0,0,0,0,0,0,0,0,0,0,0,0,0,0.9722429513931274,1,0,3
9282,-1.7034885883331299,-9.660964012145996,0,0,0,0,20,5,-40,101325,25,0,0,0,0,0,0,0,0,0,0,0,0,0,0,0,0,0,0,0,0,0,0,0,0,0,0,0,0.9722429513931274,1,0,3
9292,-1.7034885883331299,-9.660964012145996,0,0,0,0,20,5,-40,101325,25,0,0,0,0,0,0,0,0,0,0,0,0,0,0,0,0,0,0,0,0,0,0,0,0,0,0,0,0.9722429513931274,1,0,3
9302,-1.7034885883331299,-9.660964012145996,0,0,0,0,20,5,-40,101325,25,0,0,0,0,0,0,0,0,0,0,0,0,0,0,0,0,0,0,0,0,0,0,0,0,0,0,0,0.9722429513931274,1,0,3
9312,-1.7034885883331299,-9.660964012145996,0,0,0,0,20,5,-40,101325,25,0,0,0,0,0,0,0,0,0,0,0,0,0,0,0,0,0,0,0,0,0,0,0,0,0,0,0,0.9722429513931274,1,0,3
9322,-1.7034885883331299,-9.660964012145996,0,0,0,0,20,5,-40,101325,25,0,0,0,0,0,0,0,0,0,0,0,0,0,0,0,0,0,0,0,0,0,0,0,0,0,0,0,0.9722429513931274,1,0,3
9332,-1.7034885883331299,-9.660964012145996,0,0,0,0,20,5,-40,101325,25,0,0,0,0,0,0,0,0,0,0,0,0,0,0,0,0,0,0,0,0,0,0,0,0,0,0,0,0.9722429513931274,1,0,3
9342,-1.7034885883331299,-9.660964012145996,0,0,0,0,20,5,-40,101325,25,0,0,0,0,0,0,0,0,0,0,0,0,0,0,0,0,0,0,0,0,0,0,0,0,0,0,0,0.9722429513931274,1,0,3
9352,-1.7034885883331299,-9.660964012145996,0,0,0,0,20,5,-40,101325,25,0,0,0,0,0,0,0,0,0,0,0,0,0,0,0,0,0,0,0,0,0,0,0,0,0,0,0,0.9722429513931274,1,0,3
9362,-1.7034885883331299,-9.660964012145996,0,0,0,0,20,5,-40,101325,25,0,0,0,0,0,0,0,0,0,0,0,0,0,0,0,0,0,0,0,0,0,0,0,0,0,0,0,0.9722429513931274,1,0,3
9372,-1.7034885883331299,-9.660964012145996,0,0,0,0,20,5,-40,101325,25,0,0,0,0,0,0,0,0,0,0,0,0,0,0,0,0,0,0,0,0,0,0,0,0,0,0,0,0.9722429513931274,1,0,3
9382,-1.7034885883331299,-9.660964012145996,0,0,0,0,20,5,-40,101325,25,0,0,0,0,0,0,0,0,0,0,0,0,0,0,0,0,0,0,0,0,0,0,0,0,0,0,0,0.9722429513931274,1,0,3
9392,-1.7034885883331299,-9.660964012145996,0,0,0,0,20,5,-40,101325,25,0,0,0,0,0,0,0,0,0,0,0,0,0,0,0,0,0,0,0,0,0,0,0,0,0,0,0,0.9722429513931274,1,0,3
9402,-1.7034885883331299,-9.660964012145996,0,0,0,0,20,5,-40,101325,25,0,0,0,0,0,0,0,0,0,0,0,0,0,0,0,0,0,0,0,0,0,0,0,0,0,0,0,0.9722429513931274,1,0,3
9412,-1.7034885883331299,-9.660964012145996,0,0,0,0,20,5,-40,101325,25,0,0,0,0,0,0,0,0,0,0,0,0,0,0,0,0,0,0,0,0,0,0,0,0,0,0,0,0.9722429513931274,1,0,3
9422,-1.7034885883331299,-9.660964012145996,0,0,0,0,20,5,-40,101325,25,0,0,0,0,0,0,0,0,0,0,0,0,0,0,0,0,0,0,0,0,0,0,0,0,0,0,0,0.9722429513931274,1,0,3
9432,-1.7034885883331299,-9.660964012145996,0,0,0,0,20,5,-40,101325,25,0,0,0,0,0,0,0,0,0,0,0,0,0,0,0,0,0,0,0,0,0,0,0,0,0,0,0,0.9722429513931274,1,0,3
9442,-1.7034885883331299,-9.660964012145996,0,0,0,0,20,5,-40,101325,25,0,0,0,0,0,0,0,0,0,0,0,0,0,0,0,0,0,0,0,0,0,0,0,0,0,0,0,0.9722429513931274,1,0,3
9452,-1.7034885883331299,-9.660964012145996,0,0,0,0,20,5,-40,101325,25,0,0,0,0,0,0,0,0,0,0,0,0,0,0,0,0,0,0,0,0,0,0,0,0,0,0,0,0.9722429513931274,1,0,3
9462,-1.7034885883331299,-9.660964012145996,0,0,0,0,20,5,-40,101325,25,0,0,0,0,0,0,0,0,0,0,0,0,0,0,0,0,0,0,0,0,0,0,0,0,0,0,0,0.9722429513931274,1,0,3
9472,-1.7034885883331299,-9.660964012145996,0,0,0,0,20,5,-40,101325,25,0,0,0,0,0,0,0,0,0,0,0,0,0,0,0,0,0,0,0,0,0,0,0,0,0,0,0,0.9722429513931274,1,0,3
9482,-1.7034885883331299,-9.660964012145996,0,0,0,0,20,5,-40,101325,25,0,0,0,0,0,0,0,0,0,0,0,0,0,0,0,0,0,0,0,0,0,0,0,0,0,0,0,0.9722429513931274,1,0,3
9492,-1.7034885883331299,-9.660964012145996,0,0,0,0,20,5,-40,101325,25,0,0,0,0,0,0,0,0,0,0,0,0,0,0,0,0,0,0,0,0,0,0,0,0,0,0,0,0.9722429513931274,1,0,3
9502,-1.7034885883331299,-9.660964012145996,0,0,0,0,20,5,-40,101325,25,0,0,0,0,0,0,0,0,0,0,0,0,0,0,0,0,0,0,0,0,0,0,0,0,0,0,0,0.9722429513931274,1,0,3
9512,-1.7034885883331299,-9.660964012145996,0,0,0,0,20,5,-40,101325,25,0,0,0,0,0,0,0,0,0,0,0,0,0,0,0,0,0,0,0,0,0,0,0,0,0,0,0,0.9722429513931274,1,0,3
9522,-1.7034885883331299,-9.660964012145996,0,0,0,0,20,5,-40,101325,25,0,0,0,0,0,0,0,0,0,0,0,0,0,0,0,0,0,0,0,0,0,0,0,0,0,0,0,0.9722429513931274,1,0,3
9532,-1.7034885883331299,-9.660964012145996,0,0,0,0,20,5,-40,101325,25,0,0,0,0,0,0,0,0,0,0,0,0,0,0,0,0,0,0,0,0,0,0,0,0,0,0,0,0.9722429513931274,1,0,3
9542,-1.7034885883331299,-9.660964012145996,0,0,0,0,20,5,-40,101325,25,0,0,0,0,0,0,0,0,0,0,0,0,0,0,0,0,0,0,0,0,0,0,0,0,0,0,0,0.9722429513931274,1,0,3
9552,-1.7034885883331299,-9.660964012145996,0,0,0,0,20,5,-40,101325,25,0,0,0,0,0,0,0,0,0,0,0,0,0,0,0,0,0,0,0,0,0,0,0,0,0,0,0,0.9722429513931274,1,0,3
9562,-1.7034885883331299,-9.660964012145996,0,0,0,0,20,5,-40,101325,25,0,0,0,0,0,0,0,0,0,0,0,0,0,0,0,0,0,0,0,0,0,0,0,0,0,0,0,0.9722429513931274,1,0,3
9572,-1.7034885883331299,-9.660964012145996,0,0,0,0,20,5,-40,101325,25,0,0,0,0,0,0,0,0,0,0,0,0,0,0,0,0,0,0,0,0,0,0,0,0,0,0,0,0.9722429513931274,1,0,3
9582,-1.7034885883331299,-9.660964012145996,0,0,0,0,20,5,-40,101325,25,0,0,0,0,0,0,0,0,0,0,0,0,0,0,0,0,0,0,0,0,0,0,0,0,0,0,0,0.9722429513931274,1,0,3
9592,-1.7034885883331299,-9.660964012145996,0,0,0,0,20,5,-40,101325,25,0,0,0,0,0,0,0,0,0,0,0,0,0,0,0,0,0,0,0,0,0,0,0,0,0,0,0,0.9722429513931274,1,0,3
9602,-1.7034885883331299,-9.660964012145996,0,0,0,0,20,5,-40,101325,25,0,0,0,0,0,0,0,0,0,0,0,0,0,0,0,0,0,0,0,0,0,0,0,0,0,0,0,0.9722429513931274,1,0,3
9612,-1.7034885883331299,-9.660964012145996,0,0,0,0,20,5,-40,101325,25,0,0,0,0,0,0,0,0,0,0,0,0,0,0,0,0,0,0,0,0,0,0,0,0,0,0,0,0.9722429513931274,1,0,3
9622,-1.7034885883331299,-9.660964012145996,0,0,0,0,20,5,-40,101325,25,0,0,0,0,0,0,0,0,0,0,0,0,0,0,0,0,0,0,0,0,0,0,0,0,0,0,0,0.9361000657081604,1,0,3
9632,-1.7034885883331299,-9.660964012145996,0,0,0,0,20,5,-40,101325,25,0,0,0,0,0,0,0,0,0,0,0,0,0,0,0,0,0,0,0,0,0,0,0,0,0,0,0,0.9361000657081604,1,0,3
9642,-1.7034885883331299,-9.660964012145996,0,0,0,0,20,5,-40,101325,25,0,0,0,0,0,0,0,0,0,0,0,0,0,0,0,0,0,0,0,0,0,0,0,0,0,0,0,0.9361000657081604,1,0,3
9652,-1.7034885883331299,-9.660964012145996,0,0,0,0,20,5,-40,101325,25,0,0,0,0,0,0,0,0,0,0,0,0,0,0,0,0,0,0,0,0,0,0,0,0,0,0,0,0.9361000657081604,1,0,3
9662,-1.7034885883331299,-9.660964012145996,0,0,0,0,20,5,-40,101325,25,0,0,0,0,0,0,0,0,0,0,0,0,0,0,0,0,0,0,0,0,0,0,0,0,0,0,0,0.9361000657081604,1,0,3
9672,-1.7034885883331299,-9.660964012145996,0,0,0,0,20,5,-40,101325,25,0,0,0,0,0,0,0,0,0,0,0,0,0,0,0,0,0,0,0,0,0,0,0,0,0,0,0,0.9361000657081604,1,0,3
9682,-1.7034885883331299,-9.660964012145996,0,0,0,0,20,5,-40,101325,25,0,0,0,0,0,0,0,0,0,0,0,0,0,0,0,0,0,0,0,0,0,0,0,0,0,0,0,0.9361000657081604,1,0,3
9692,-1.7034885883331299,-9.660964012145996,0,0,0,0,20,5,-40,101325,25,0,0,0,0,0,0,0,0,0,0,0,0,0,0,0,0,0,0,0,0,0,0,0,0,0,0,0,0.9361000657081604,1,0,3
9702,-1.7034885883331299,-9.660964012145996,0,0,0,0,20,5,-40,101325,25,0,0,0,0,0,0,0,0,0,0,0,0,0,0,0,0,0,0,0,0,0,0,0,0,0,0,0,0.9361000657081604,1,0,3
9712,-1.7034885883331299,-9.660964012145996,0,0,0,0,20,5,-40,101325,25,0,0,0,0,0,0,0,0,0,0,0,0,0,0,0,0,0,0,0,0,0,0,0,0,0,0,0,0.9361000657081604,1,0,3
9722,-1.7034885883331299,-9.660964012145996,0,0,0,0,20,5,-40,101325,25,0,0,0,0,0,0,0,0,0,0,0,0,0,0,0,0,0,0,0,0,0,0,0,0,0,0,0,0.9361000657081604,1,0,3
9732,-1.7034885883331299,-9.660964012145996,0,0,0,0,20,5,-40,101325,25,0,0,0,0,0,0,0,0,0,0,0,0,0,0,0,0,0,0,0,0,0,0,0,0,0,0,0,0.9361000657081604,1,0,3
9742,-1.7034885883331299,-9.660964012145996,0,0,0,0,20,5,-40,101325,25,0,0,0,0,0,0,0,0,0,0,0,0,0,0,0,0,0,0,0,0,0,0,0,0,0,0,0,0.9361000657081604,1,0,3
9752,-1.7034885883331299,-9.660964012145996,0,0,0,0,20,5,-40,101325,25,0,0,0,0,0,0,0,0,0,0,0,0,0,0,0,0,0,0,0,0,0,0,0,0,0,0,0,0.9361000657081604,1,0,3
9762,-1.7034885883331299,-9.660964012145996,0,0,0,0,20,5,-40,101325,25,0,0,0,0,0,0,0,0,0,0,0,0,0,0,0,0,0,0,0,0,0,0,0,0,0,0,0,0.9361000657081604,1,0,3
9772,-1.7034885883331299,-9.660964012145996,0,0,0,0,20,5,-40,101325,25,0,0,0,0,0,0,0,0,0,0,0,0,0,0,0,0,0,0,0,0,0,0,0,0,0,0,0,0.9361000657081604,1,0,3
9782,-1.7034885883331299,-9.660964012145996,0,0,0,0,20,5,-40,101325,25,0,0,0,0,0,0,0,0,0,0,0,0,0,0,0,0,0,0,0,0,0,0,0,0,0,0,0,0.9361000657081604,1,0,3
9792,-1.7034885883331299,-9.660964012145996,0,0,0,0,20,5,-40,101325,25,0,0,0,0,0,0,0,0,0,0,0,0,0,0,0,0,0,0,0,0,0,0,0,0,0,0,0,0.9361000657081604,1,0,3
9802,-1.7034885883331299,-9.660964012145996,0,0,0,0,20,5,-40,101325,25,0,0,0,0,0,0,0,0,0,0,0,0,0,0,0,0,0,0,0,0,0,0,0,0,0,0,0,0.9361000657081604,1,0,3
9812,-1.7034885883331299,-9.660964012145996,0,0,0,0,20,5,-40,101325,25,0,0,0,0,0,0,0,0,0,0,0,0,0,0,0,0,0,0,0,0,0,0,0,0,0,0,0,0.9361000657081604,1,0,3
9822,-1.7034885883331299,-9.660964012145996,0,0,0,0,20,5,-40,101325,25,0,0,0,0,0,0,0,0,0,0,0,0,0,0,0,0,0,0,0,0,0,0,0,0,0,0,0,0.9361000657081604,1,0,3
9832,-1.7034885883331299,-9.660964012145996,0,0,0,0,20,5,-40,101325,25,0,0,0,0,0,0,0,0,0,0,0,0,0,0,0,0,0,0,0,0,0,0,0,0,0,0,0,0.9361000657081604,1,0,3
9842,-1.7034885883331299,-9.660964012145996,0,0,0,0,20,5,-40,101325,25,0,0,0,0,0,0,0,0,0,0,0,0,0,0,0,0,0,0,0,0,0,0,0,0,0,0,0,0.9361000657081604,1,0,3
9852,-1.7034885883331299,-9.660964012145996,0,0,0,0,20,5,-40,101325,25,0,0,0,0,0,0,0,0,0,0,0,0,0,0,0,0,0,0,0,0,0,0,0,0,0,0,0,0.9361000657081604,1,0,3
9862,-1.7034885883331299,-9.660964012145996,0,0,0,0,20,5,-40,101325,25,0,0,0,0,0,0,0,0,0,0,0,0,0,0,0,0,0,0,0,0,0,0,0,0,0,0,0,0.9361000657081604,1,0,3
9872,-1.7034885883331299,-9.660964012145996,0,0,0,0,20,5,-40,101325,25,0,0,0,0,0,0,0,0,0,0,0,0,0,0,0,0,0,0,0,0,0,0,0,0,0,0,0,0.9361000657081604,1,0,3
9882,-1.7034885883331299,-9.660964012145996,0,0,0,0,20,5,-40,101325,25,0,0,0,0,0,0,0,0,0,0,0,0,0,0,0,0,0,0,0,0,0,0,0,0,0,0,0,0.9361000657081604,1,0,3
9892,-1.7034885883331299,-9.660964012145996,0,0,0,0,20,5,-40,101325,25,0,0,0,0,0,0,0,0,0,0,0,0,0,0,0,0,0,0,0,0,0,0,0,0,0,0,0,0.9361000657081604,1,0,3
9902,-1.7034885883331299,-9.660964012145996,0,0,0,0,20,5,-40,101325,25,0,0,0,0,0,0,0,0,0,0,0,0,0,0,0,0,0,0,0,0,0,0,0,0,0,0,0,0.9361000657081604,1,0,3
9912,-1.7034885883331299,-9.660964012145996,0,0,0,0,20,5,-40,101325,25,0,0,0,0,0,0,0,0,0,0,0,0,0,0,0,0,0,0,0,0,0,0,0,0,0,0,0,0.9361000657081604,1,0,3
9922,-1.7034885883331299,-9.660964012145996,0,0,0,0,20,5,-40,101325,25,0,0,0,0,0,0,0,0,0,0,0,0,0,0,0,0,0,0,0,0,0,0,0,0,0,0,0,0.9361000657081604,1,0,3
9932,-1.7034885883331299,-9.660964012145996,0,0,0,0,20,5,-40,101325,25,0,0,0,0,0,0,0,0,0,0,0,0,0,0,0,0,0,0,0,0,0,0,0,0,0,0,0,0.9361000657081604,1,0,3
9942,-1.7034885883331299,-9.660964012145996,0,0,0,0,20,5,-40,101325,25,0,0,0,0,0,0,0,0,0,0,0,0,0,0,0,0,0,0,0,0,0,0,0,0,0,0,0,0.9361000657081604,1,0,3
9952,-1.7034885883331299,-9.660964012145996,0,0,0,0,20,5,-40,101325,25,0,0,0,0,0,0,0,0,0,0,0,0,0,0,0,0,0,0,0,0,0,0,0,0,0,0,0,0.9361000657081604,1,0,3
9962,-1.7034885883331299,-9.660964012145996,0,0,0,0,20,5,-40,101325,25,0,0,0,0,0,0,0,0,0,0,0,0,0,0,0,0,0,0,0,0,0,0,0,0,0,0,0,0.9361000657081604,1,0,3
9972,-1.7034885883331299,-9.660964012145996,0,0,0,0,20,5,-40,101325,25,0,0,0,0,0,0,0,0,0,0,0,0,0,0,0,0,0,0,0,0,0,0,0,0,0,0,0,0.9361000657081604,1,0,3
9982,-1.7034885883331299,-9.660964012145996,0,0,0,0,20,5,-40,101325,25,0,0,0,0,0,0,0,0,0,0,0,0,0,0,0,0,0,0,0,0,0,0,0,0,0,0,0,0.9361000657081604,1,0,3
9992,-1.7034885883331299,-9.660964012145996,0,0,0,0,20,5,-40,101325,25,0,0,0,0,0,0,0,0,0,0,0,0,0,0,0,0,0,0,0,0,0,0,0,0,0,0,0,0.9361000657081604,1,0,3
10002,-1.7034885883331299,-9.660964012145996,0,0,0,0,20,5,-40,101325,25,0,0,0,0,0,0,0,0,0,0,0,0,0,0,0,0,0,0,0,0,0,0,0,0,0,0,0,0.9361000657081604,1,0,3
10012,-1.7034885883331299,-9.660964012145996,0,0,0,0,20,5,-40,101325,25,0,0,0,0,0,0,0,0,0,0,0,0,0,0,0,0,0,0,0,0,0,0,0,0,0,0,0,0.9361000657081604,1,0,3
10022,-1.7034885883331299,-9.660964012145996,0,0,0,0,20,5,-40,101325,25,0,0,0,0,0,0,0,0,0,0,0,0,0,0,0,0,0,0,0,0,0,0,0,0,0,0,0,0.9361000657081604,1,0,3
10032,-1.7034885883331299,-9.660964012145996,0,0,0,0,20,5,-40,101325,25,0,0,0,0,0,0,0,0,0,0,0,0,0,0,0,0,0,0,0,0,0,0,0,0,0,0,0,0.9361000657081604,1,0,3
10042,-1.7034885883331299,-9.660964012145996,0,0,0,0,20,5,-40,101325,25,0,0,0,0,0,0,0,0,0,0,0,0,0,0,0,0,0,0,0,0,0,0,0,0,0,0,0,0.9361000657081604,1,0,3
10052,-1.7034885883331299,-9.660964012145996,0,0,0,0,20,5,-40,101325,25,0,0,0,0,0,0,0,0,0,0,0,0,0,0,0,0,0,0,0,0,0,0,0,0,0,0,0,0.9361000657081604,1,0,3
10062,-1.7034885883331299,-9.660964012145996,0,0,0,0,20,5,-40,101325,25,0,0,0,0,0,0,0,0,0,0,0,0,0,0,0,0,0,0,0,0,0,0,0,0,0,0,0,0.9361000657081604,1,0,3
10072,-1.7034885883331299,-9.660964012145996,0,0,0,0,20,5,-40,101325,25,0,0,0,0,0,0,0,0,0,0,0,0,0,0,0,0,0,0,0,0,0,0,0,0,0,0,0,0.9361000657081604,1,0,3
10082,-1.7034885883331299,-9.660964012145996,0,0,0,0,20,5,-40,101325,25,0,0,0,0,0,0,0,0,0,0,0,0,0,0,0,0,0,0,0,0,0,0,0,0,0,0,0,0.9361000657081604,1,0,3
10092,-1.7034885883331299,-9.660964012145996,0,0,0,0,20,5,-40,101325,25,0,0,0,0,0,0,0,0,0,0,0,0,0,0,0,0,0,0,0,0,0,0,0,0,0,0,0,0.9361000657081604,1,0,3
10102,-1.7034885883331299,-9.660964012145996,0,0,0,0,20,5,-40,101325,25,0,0,0,0,0,0,0,0,0,0,0,0,0,0,0,0,0,0,0,0,0,0,0,0,0,0,0,0.9361000657081604,1,0,3
10112,-1.7034885883331299,-9.660964012145996,0,0,0,0,20,5,-40,101325,25,0,0,0,0,0,0,0,0,0,0,0,0,0,0,0,0,0,0,0,0,0,0,0,0,0,0,0,0.9361000657081604,1,0,3
10122,-1.7034885883331299,-9.660964012145996,0,0,0,0,20,5,-40,101325,25,0,0,0,0,0,0,0,0,0,0,0,0,0,0,0,0,0,0,0,0,0,0,0,0,0,0,0,0.8855000138282776,1,0,3
10132,-1.7034885883331299,-9.660964012145996,0,0,0,0,20,5,-40,101325,25,0,0,0,0,0,0,0,0,0,0,0,0,0,0,0,0,0,0,0,0,0,0,0,0,0,0,0,0.8855000138282776,1,0,3
10142,-1.7034885883331299,-9.660964012145996,0,0,0,0,20,5,-40,101325,25,0,0,0,0,0,0,0,0,0,0,0,0,0,0,0,0,0,0,0,0,0,0,0,0,0,0,0,0.8855000138282776,1,0,3
10152,-1.7034885883331299,-9.660964012145996,0,0,0,0,20,5,-40,101325,25,0,0,0,0,0,0,0,0,0,0,0,0,0,0,0,0,0,0,0,0,0,0,0,0,0,0,0,0.8855000138282776,1,0,3
10162,-1.7034885883331299,-9.660964012145996,0,0,0,0,20,5,-40,101325,25,0,0,0,0,0,0,0,0,0,0,0,0,0,0,0,0,0,0,0,0,0,0,0,0,0,0,0,0.8855000138282776,1,0,3
10172,-1.7034885883331299,-9.660964012145996,0,0,0,0,20,5,-40,101325,25,0,0,0,0,0,0,0,0,0,0,0,0,0,0,0,0,0,0,0,0,0,0,0,0,0,0,0,0.8855000138282776,1,0,3
10182,-1.7034885883331299,-9.660964012145996,0,0,0,0,20,5,-40,101325,25,0,0,0,0,0,0,0,0,0,0,0,0,0,0,0,0,0,0,0,0,0,0,0,0,0,0,0,0.8855000138282776,1,0,3
10192,-1.7034885883331299,-9.660964012145996,0,0,0,0,20,5,-40,101325,25,0,0,0,0,0,0,0,0,0,0,0,0,0,0,0,0,0,0,0,0,0,0,0,0,0,0,0,0.8855000138282776,1,0,3
10202,-1.7034885883331299,-9.660964012145996,0,0,0,0,20,5,-40,101325,25,0,0,0,0,0,0,0,0,0,0,0,0,0,0,0,0,0,0,0,0,0,0,0,0,0,0,0,0.8855000138282776,1,0,3
10212,-1.7034885883331299,-9.660964012145996,0,0,0,0,20,5,-40,101325,25,0,0,0,0,0,0,0,0,0,0,0,0,0,0,0,0,0,0,0,0,0,0,0,0,0,0,0,0.8855000138282776,1,0,3
10222,-1.7034885883331299,-9.660964012145996,0,0,0,0,20,5,-40,101325,25,0,0,0,0,0,0,0,0,0,0,0,0,0,0,0,0,0,0,0,0,0,0,0,0,0,0,0,0.8855000138282776,1,0,3
10232,-1.7034885883331299,-9.660964012145996,0,0,0,0,20,5,-40,101325,25,0,0,0,0,0,0,0,0,0,0,0,0,0,0,0,0,0,0,0,0,0,0,0,0,0,0,0,0.8855000138282776,1,0,3
10242,-1.7034885883331299,-9.660964012145996,0,0,0,0,20,5,-40,101325,25,0,0,0,0,0,0,0,0,0,0,0,0,0,0,0,0,0,0,0,0,0,0,0,0,0,0,0,0.8855000138282776,1,0,3
10252,-1.7034885883331299,-9.660964012145996,0,0,0,0,20,5,-40,101325,25,0,0,0,0,0,0,0,0,0,0,0,0,0,0,0,0,0,0,0,0,0,0,0,0,0,0,0,0.8855000138282776,1,0,3
10262,-1.7034885883331299,-9.660964012145996,0,0,0,0,20,5,-40,101325,25,0,0,0,0,0,0,0,0,0,0,0,0,0,0,0,0,0,0,0,0,0,0,0,0,0,0,0,0.8855000138282776,1,0,3
10272,-1.7034885883331299,-9.660964012145996,0,0,0,0,20,5,-40,101325,25,0,0,0,0,0,0,0,0,0,0,0,0,0,0,0,0,0,0,0,0,0,0,0,0,0,0,0,0.8855000138282776,1,0,3
10282,-1.7034885883331299,-9.660964012145996,0,0,0,0,20,5,-40,101325,25,0,0,0,0,0,0,0,0,0,0,0,0,0,0,0,0,0,0,0,0,0,0,0,0,0,0,0,0.8855000138282776,1,0,3
10292,-1.7034885883331299,-9.660964012145996,0,0,0,0,20,5,-40,101325,25,0,0,0,0,0,0,0,0,0,0,0,0,0,0,0,0,0,0,0,0,0,0,0,0,0,0,0,0.8855000138282776,1,0,3
10302,-1.7034885883331299,-9.660964012145996,0,0,0,0,20,5,-40,101325,25,0,0,0,0,0,0,0,0,0,0,0,0,0,0,0,0,0,0,0,0,0,0,0,0,0,0,0,0.8855000138282776,1,0,3
10312,-1.7034885883331299,-9.660964012145996,0,0,0,0,20,5,-40,101325,25,0,0,0,0,0,0,0,0,0,0,0,0,0,0,0,0,0,0,0,0,0,0,0,0,0,0,0,0.8855000138282776,1,0,3
10322,-1.7034885883331299,-9.660964012145996,0,0,0,0,20,5,-40,101325,25,0,0,0,0,0,0,0,0,0,0,0,0,0,0,0,0,0,0,0,0,0,0,0,0,0,0,0,0.8855000138282776,1,0,3
10332,-1.7034885883331299,-9.660964012145996,0,0,0,0,20,5,-40,101325,25,0,0,0,0,0,0,0,0,0,0,0,0,0,0,0,0,0,0,0,0,0,0,0,0,0,0,0,0.8855000138282776,1,0,3
10342,-1.7034885883331299,-9.660964012145996,0,0,0,0,20,5,-40,101325,25,0,0,0,0,0,0,0,0,0,0,0,0,0,0,0,0,0,0,0,0,0,0,0,0,0,0,0,0.8855000138282776,1,0,3
10352,-1.7034885883331299,-9.660964012145996,0,0,0,0,20,5,-40,101325,25,0,0,0,0,0,0,0,0,0,0,0,0,0,0,0,0,0,0,0,0,0,0,0,0,0,0,0,0.8855000138282776,1,0,3
10362,-1.7034885883331299,-9.660964012145996,0,0,0,0,20,5,-40,101325,25,0,0,0,0,0,0,0,0,0,0,0,0,0,0,0,0,0,0,0,0,0,0,0,0,0,0,0,0.8855000138282776,1,0,3
10372,-1.7034885883331299,-9.660964012145996,0,0,0,0,20,5,-40,101325,25,0,0,0,0,0,0,0,0,0,0,0,0,0,0,0,0,0,0,0,0,0,0,0,0,0,0,0,0.8855000138282776,1,0,3
10382,-1.7034885883331299,-9.660964012145996,0,0,0,0,20,5,-40,101325,25,0,0,0,0,0,0,0,0,0,0,0,0,0,0,0,0,0,0,0,0,0,0,0,0,0,0,0,0.8855000138282776,1,0,3
10392,-1.7034885883331299,-9.660964012145996,0,0,0,0,20,5,-40,101325,25,0,0,0,0,0,0,0,0,0,0,0,0,0,0,0,0,0,0,0,0,0,0,0,0,0,0,0,0.8855000138282776,1,0,3
10402,-1.7034885883331299,-9.660964012145996,0,0,0,0,20,5,-40,101325,25,0,0,0,0,0,0,0,0,0,0,0,0,0,0,0,0,0,0,0,0,0,0,0,0,0,0,0,0.8855000138282776,1,0,3
10412,-1.7034885883331299,-9.660964012145996,0,0,0,0,20,5,-40,101325,25,0,0,0,0,0,0,0,0,0,0,0,0,0,0,0,0,0,0,0,0,0,0,0,0,0,0,0,0.8855000138282776,1,0,3
10422,-1.7034885883331299,-9.660964012145996,0,0,0,0,20,5,-40,101325,25,0,0,0,0,0,0,0,0,0,0,0,0,0,0,0,0,0,0,0,0,0,0,0,0,0,0,0,0.8855000138282776,1,0,3
10432,-1.7034885883331299,-9.660964012145996,0,0,0,0,20,5,-40,101325,25,0,0,0,0,0,0,0,0,0,0,0,0,0,0,0,0,0,0,0,0,0,0,0,0,0,0,0,0.8855000138282776,1,0,3
10442,-1.7034885883331299,-9.660964012145996,0,0,0,0,20,5,-40,101325,25,0,0,0,0,0,0,0,0,0,0,0,0,0,0,0,0,0,0,0,0,0,0,0,0,0,0,0,0.8855000138282776,1,0,3
10452,-1.7034885883331299,-9.660964012145996,0,0,0,0,20,5,-40,101325,25,0,0,0,0,0,0,0,0,0,0,0,0,0,0,0,0,0,0,0,0,0,0,0,0,0,0,0,0.8855000138282776,1,0,3
10462,-1.7034885883331299,-9.660964012145996,0,0,0,0,20,5,-40,101325,25,0,0,0,0,0,0,0,0,0,0,0,0,0,0,0,0,0,0,0,0,0,0,0,0,0,0,0,0.8855000138282776,1,0,3
10472,-1.7034885883331299,-9.660964012145996,0,0,0,0,20,5,-40,101325,25,0,0,0,0,0,0,0,0,0,0,0,0,0,0,0,0,0,0,0,0,0,0,0,0,0,0,0,0.8855000138282776,1,0,3
10482,-1.7034885883331299,-9.660964012145996,0,0,0,0,20,5,-40,101325,25,0,0,0,0,0,0,0,0,0,0,0,0,0,0,0,0,0,0,0,0,0,0,0,0,0,0,0,0.8855000138282776,1,0,3
10492,-1.7034885883331299,-9.660964012145996,0,0,0,0,20,5,-40,101325,25,0,0,0,0,0,0,0,0,0,0,0,0,0,0,0,0,0,0,0,0,0,0,0,0,0,0,0,0.8855000138282776,1,0,3
10502,-1.7034885883331299,-9.660964012145996,0,0,0,0,20,5,-40,101325,25,0,0,0,0,0,0,0,0,0,0,0,0,0,0,0,0,0,0,0,0,0,0,0,0,0,0,0,0.8855000138282776,1,0,3
10512,-1.7034885883331299,-9.660964012145996,0,0,0,0,20,5,-40,101325,25,0,0,0,0,0,0,0,0,0,0,0,0,0,0,0,0,0,0,0,0,0,0,0,0,0,0,0,0.8855000138282776,1,0,3
10522,-1.7034885883331299,-9.660964012145996,0,0,0,0,20,5,-40,101325,25,0,0,0,0,0,0,0,0,0,0,0,0,0,0,0,0,0,0,0,0,0,0,0,0,0,0,0,0.8855000138282776,1,0,3
10532,-1.7034885883331299,-9.660964012145996,0,0,0,0,20,5,-40,101325,25,0,0,0,0,0,0,0,0,0,0,0,0,0,0,0,0,0,0,0,0,0,0,0,0,0,0,0,0.8855000138282776,1,0,3
10542,-1.7034885883331299,-9.660964012145996,0,0,0,0,20,5,-40,101325,25,0,0,0,0,0,0,0,0,0,0,0,0,0,0,0,0,0,0,0,0,0,0,0,0,0,0,0,0.8855000138282776,1,0,3
10552,-1.7034885883331299,-9.660964012145996,0,0,0,0,20,5,-40,101325,25,0,0,0,0,0,0,0,0,0,0,0,0,0,0,0,0,0,0,0,0,0,0,0,0,0,0,0,0.8855000138282776,1,0,3
10562,-1.7034885883331299,-9.660964012145996,0,0,0,0,20,5,-40,101325,25,0,0,0,0,0,0,0,0,0,0,0,0,0,0,0,0,0,0,0,0,0,0,0,0,0,0,0,0.8855000138282776,1,0,3
10572,-1.7034885883331299,-9.660964012145996,0,0,0,0,20,5,-40,101325,25,0,0,0,0,0,0,0,0,0,0,0,0,0,0,0,0,0,0,0,0,0,0,0,0,0,0,0,0.8855000138282776,1,0,3
10582,-1.7034885883331299,-9.660964012145996,0,0,0,0,20,5,-40,101325,25,0,0,0,0,0,0,0,0,0,0,0,0,0,0,0,0,0,0,0,0,0,0,0,0,0,0,0,0.8855000138282776,1,0,3
10592,-1.7034885883331299,-9.660964012145996,0,0,0,0,20,5,-40,101325,25,0,0,0,0,0,0,0,0,0,0,0,0,0,0,0,0,0,0,0,0,0,0,0,0,0,0,0,0.8855000138282776,1,0,3
10602,-1.7034885883331299,-9.660964012145996,0,0,0,0,20,5,-40,101325,25,0,0,0,0,0,0,0,0,0,0,0,0,0,0,0,0,0,0,0,0,0,0,0,0,0,0,0,0.8855000138282776,1,0,3
10612,-1.7034885883331299,-9.660964012145996,0,0,0,0,20,5,-40,101325,25,0,0,0,0,0,0,0,0,0,0,0,0,0,0,0,0,0,0,0,0,0,0,0,0,0,0,0,0.8855000138282776,1,0,3
10622,-1.7034885883331299,-9.660964012145996,0,0,0,0,20,5,-40,101325,25,0,0,0,0,0,0,0,0,0,0,0,0,0,0,0,0,0,0,0,0,0,0,0,0,0,0,0,0.8529714345932007,1,0,3
10632,-1.7034885883331299,-9.660964012145996,0,0,0,0,20,5,-40,101325,25,0,0,0,0,0,0,0,0,0,0,0,0,0,0,0,0,0,0,0,0,0,0,0,0,0,0,0,0.8529714345932007,1,0,3
10642,-1.7034885883331299,-9.660964012145996,0,0,0,0,20,5,-40,101325,25,0,0,0,0,0,0,0,0,0,0,0,0,0,0,0,0,0,0,0,0,0,0,0,0,0,0,0,0.8529714345932007,1,0,3
10652,-1.7034885883331299,-9.660964012145996,0,0,0,0,20,5,-40,101325,25,0,0,0,0,0,0,0,0,0,0,0,0,0,0,0,0,0,0,0,0,0,0,0,0,0,0,0,0.8529714345932007,1,0,3
10662,-1.7034885883331299,-9.660964012145996,0,0,0,0,20,5,-40,101325,25,0,0,0,0,0,0,0,0,0,0,0,0,0,0,0,0,0,0,0,0,0,0,0,0,0,0,0,0.8529714345932007,1,0,3
10672,-1.7034885883331299,-9.660964012145996,0,0,0,0,20,5,-40,101325,25,0,0,0,0,0,0,0,0,0,0,0,0,0,0,0,0,0,0,0,0,0,0,0,0,0,0,0,0.8529714345932007,1,0,3
10682,-1.7034885883331299,-9.660964012145996,0,0,0,0,20,5,-40,101325,25,0,0,0,0,0,0,0,0,0,0,0,0,0,0,0,0,0,0,0,0,0,0,0,0,0,0,0,0.8529714345932007,1,0,3
10692,-1.7034885883331299,-9.660964012145996,0,0,0,0,20,5,-40,101325,25,0,0,0,0,0,0,0,0,0,0,0,0,0,0,0,0,0,0,0,0,0,0,0,0,0,0,0,0.8529714345932007,1,0,3
10702,-1.7034885883331299,-9.660964012145996,0,0,0,0,20,5,-40,101325,25,0,0,0,0,0,0,0,0,0,0,0,0,0,0,0,0,0,0,0,0,0,0,0,0,0,0,0,0.8529714345932007,1,0,3
10712,-1.7034885883331299,-9.660964012145996,0,0,0,0,20,5,-40,101325,25,0,0,0,0,0,0,0,0,0,0,0,0,0,0,0,0,0,0,0,0,0,0,0,0,0,0,0,0.8529714345932007,1,0,3
10722,-1.7034885883331299,-9.660964012145996,0,0,0,0,20,5,-40,101325,25,0,0,0,0,0,0,0,0,0,0,0,0,0,0,0,0,0,0,0,0,0,0,0,0,0,0,0,0.8529714345932007,1,0,3
10732,-1.7034885883331299,-9.660964012145996,0,0,0,0,20,5,-40,101325,25,0,0,0,0,0,0,0,0,0,0,0,0,0,0,0,0,0,0,0,0,0,0,0,0,0,0,0,0.8529714345932007,1,0,3
10742,-1.7034885883331299,-9.660964012145996,0,0,0,0,20,5,-40,101325,25,0,0,0,0,0,0,0,0,0,0,0,0,0,0,0,0,0,0,0,0,0,0,0,0,0,0,0,0.8529714345932007,1,0,3
10752,-1.7034885883331299,-9.660964012145996,0,0,0,0,20,5,-40,101325,25,0,0,0,0,0,0,0,0,0,0,0,0,0,0,0,0,0,0,0,0,0,0,0,0,0,0,0,0.8529714345932007,1,0,3
10762,-1.7034885883331299,-9.660964012145996,0,0,0,0,20,5,-40,101325,25,0,0,0,0,0,0,0,0,0,0,0,0,0,0,0,0,0,0,0,0,0,0,0,0,0,0,0,0.8529714345932007,1,0,3
10772,-1.7034885883331299,-9.660964012145996,0,0,0,0,20,5,-40,101325,25,0,0,0,0,0,0,0,0,0,0,0,0,0,0,0,0,0,0,0,0,0,0,0,0,0,0,0,0.8529714345932007,1,0,3
10782,-1.7034885883331299,-9.660964012145996,0,0,0,0,20,5,-40,101325,25,0,0,0,0,0,0,0,0,0,0,0,0,0,0,0,0,0,0,0,0,0,0,0,0,0,0,0,0.8529714345932007,1,0,3
10792,-1.7034885883331299,-9.660964012145996,0,0,0,0,20,5,-40,101325,25,0,0,0,0,0,0,0,0,0,0,0,0,0,0,0,0,0,0,0,0,0,0,0,0,0,0,0,0.8529714345932007,1,0,3
10802,-1.7034885883331299,-9.660964012145996,0,0,0,0,20,5,-40,101325,25,0,0,0,0,0,0,0,0,0,0,0,0,0,0,0,0,0,0,0,0,0,0,0,0,0,0,0,0.8529714345932007,1,0,3
10812,-1.7034885883331299,-9.660964012145996,0,0,0,0,20,5,-40,101325,25,0,0,0,0,0,0,0,0,0,0,0,0,0,0,0,0,0,0,0,0,0,0,0,0,0,0,0,0.8529714345932007,1,0,3
10822,-1.7034885883331299,-9.660964012145996,0,0,0,0,20,5,-40,101325,25,0,0,0,0,0,0,0,0,0,0,0,0,0,0,0,0,0,0,0,0,0,0,0,0,0,0,0,0.8529714345932007,1,0,3
10832,-1.7034885883331299,-9.660964012145996,0,0,0,0,20,5,-40,101325,25,0,0,0,0,0,0,0,0,0,0,0,0,0,0,0,0,0,0,0,0,0,0,0,0,0,0,0,0.8529714345932007,1,0,3
10842,-1.7034885883331299,-9.660964012145996,0,0,0,0,20,5,-40,101325,25,0,0,0,0,0,0,0,0,0,0,0,0,0,0,0,0,0,0,0,0,0,0,0,0,0,0,0,0.8529714345932007,1,0,3
10852,-1.7034885883331299,-9.660964012145996,0,0,0,0,20,5,-40,101325,25,0,0,0,0,0,0,0,0,0,0,0,0,0,0,0,0,0,0,0,0,0,0,0,0,0,0,0,0.8529714345932007,1,0,3
10862,-1.7034885883331299,-9.660964012145996,0,0,0,0,20,5,-40,101325,25,0,0,0,0,0,0,0,0,0,0,0,0,0,0,0,0,0,0,0,0,0,0,0,0,0,0,0,0.8529714345932007,1,0,3
10872,-1.7034885883331299,-9.660964012145996,0,0,0,0,20,5,-40,101325,25,0,0,0,0,0,0,0,0,0,0,0,0,0,0,0,0,0,0,0,0,0,0,0,0,0,0,0,0.8529714345932007,1,0,3
10882,-1.7034885883331299,-9.660964012145996,0,0,0,0,20,5,-40,101325,25,0,0,0,0,0,0,0,0,0,0,0,0,0,0,0,0,0,0,0,0,0,0,0,0,0,0,0,0.8529714345932007,1,0,3
10892,-1.7034885883331299,-9.660964012145996,0,0,0,0,20,5,-40,101325,25,0,0,0,0,0,0,0,0,0,0,0,0,0,0,0,0,0,0,0,0,0,0,0,0,0,0,0,0.8529714345932007,1,0,3
10902,-1.7034885883331299,-9.660964012145996,0,0,0,0,20,5,-40,101325,25,0,0,0,0,0,0,0,0,0,0,0,0,0,0,0,0,0,0,0,0,0,0,0,0,0,0,0,0.8529714345932007,1,0,3
10912,-1.7034885883331299,-9.660964012145996,0,0,0,0,20,5,-40,101325,25,0,0,0,0,0,0,0,0,0,0,0,0,0,0,0,0,0,0,0,0,0,0,0,0,0,0,0,0.8529714345932007,1,0,3
10922,-1.7034885883331299,-9.660964012145996,0,0,0,0,20,5,-40,101325,25,0,0,0,0,0,0,0,0,0,0,0,0,0,0,0,0,0,0,0,0,0,0,0,0,0,0,0,0.8529714345932007,1,0,3
10932,-1.7034885883331299,-9.660964012145996,0,0,0,0,20,5,-40,101325,25,0,0,0,0,0,0,0,0,0,0,0,0,0,0,0,0,0,0,0,0,0,0,0,0,0,0,0,0.8529714345932007,1,0,3
10942,-1.7034885883331299,-9.660964012145996,0,0,0,0,20,5,-40,101325,25,0,0,0,0,0,0,0,0,0,0,0,0,0,0,0,0,0,0,0,0,0,0,0,0,0,0,0,0.8529714345932007,1,0,3
10952,-1.7034885883331299,-9.660964012145996,0,0,0,0,20,5,-40,101325,25,0,0,0,0,0,0,0,0,0,0,0,0,0,0,0,0,0,0,0,0,0,0,0,0,0,0,0,0.8529714345932007,1,0,3
10962,-1.7034885883331299,-9.660964012145996,0,0,0,0,20,5,-40,101325,25,0,0,0,0,0,0,0,0,0,0,0,0,0,0,0,0,0,0,0,0,0,0,0,0,0,0,0,0.8529714345932007,1,0,3
10972,-1.7034885883331299,-9.660964012145996,0,0,0,0,20,5,-40,101325,25,0,0,0,0,0,0,0,0,0,0,0,0,0,0,0,0,0,0,0,0,0,0,0,0,0,0,0,0.8529714345932007,1,0,3
10982,-1.7034885883331299,-9.660964012145996,0,0,0,0,20,5,-40,101325,25,0,0,0,0,0,0,0,0,0,0,0,0,0,0,0,0,0,0,0,0,0,0,0,0,0,0,0,0.8529714345932007,1,0,3
10992,-1.7034885883331299,-9.660964012145996,0,0,0,0,20,5,-40,101325,25,0,0,0,0,0,0,0,0,0,0,0,0,0,0,0,0,0,0,0,0,0,0,0,0,0,0,0,0.8529714345932007,1,0,3
11002,-1.7034885883331299,-9.660964012145996,0,0,0,0,20,5,-40,101325,25,0,0,0,0,0,0,0,0,0,0,0,0,0,0,0,0,0,0,0,0,0,0,0,0,0,0,0,0.8529714345932007,1,0,3
11012,-1.7034885883331299,-9.660964012145996,0,0,0,0,20,5,-40,101325,25,0,0,0,0,0,0,0,0,0,0,0,0,0,0,0,0,0,0,0,0,0,0,0,0,0,0,0,0.8529714345932007,1,0,3
11022,-1.7034885883331299,-9.660964012145996,0,0,0,0,20,5,-40,101325,25,0,0,0,0,0,0,0,0,0,0,0,0,0,0,0,0,0,0,0,0,0,0,0,0,0,0,0,0.8529714345932007,1,0,3
11032,-1.7034885883331299,-9.660964012145996,0,0,0,0,20,5,-40,101325,25,0,0,0,0,0,0,0,0,0,0,0,0,0,0,0,0,0,0,0,0,0,0,0,0,0,0,0,0.8529714345932007,1,0,3
11042,-1.7034885883331299,-9.660964012145996,0,0,0,0,20,5,-40,101325,25,0,0,0,0,0,0,0,0,0,0,0,0,0,0,0,0,0,0,0,0,0,0,0,0,0,0,0,0.8529714345932007,1,0,3
11052,-1.7034885883331299,-9.660964012145996,0,0,0,0,20,5,-40,101325,25,0,0,0,0,0,0,0,0,0,0,0,0,0,0,0,0,0,0,0,0,0,0,0,0,0,0,0,0.8529714345932007,1,0,3
11062,-1.7034885883331299,-9.660964012145996,0,0,0,0,20,5,-40,101325,25,0,0,0,0,0,0,0,0,0,0,0,0,0,0,0,0,0,0,0,0,0,0,0,0,0,0,0,0.8529714345932007,1,0,3
11072,-1.7034885883331299,-9.660964012145996,0,0,0,0,20,5,-40,101325,25,0,0,0,0,0,0,0,0,0,0,0,0,0,0,0,0,0,0,0,0,0,0,0,0,0,0,0,0.8529714345932007,1,0,3
11082,-1.7034885883331299,-9.660964012145996,0,0,0,0,20,5,-40,101325,25,0,0,0,0,0,0,0,0,0,0,0,0,0,0,0,0,0,0,0,0,0,0,0,0,0,0,0,0.8529714345932007,1,0,3
11092,-1.7034885883331299,-9.660964012145996,0,0,0,0,20,5,-40,101325,25,0,0,0,0,0,0,0,0,0,0,0,0,0,0,0,0,0,0,0,0,0,0,0,0,0,0,0,0.8529714345932007,1,0,3
11102,-1.7034885883331299,-9.660964012145996,0,0,0,0,20,5,-40,101325,25,0,0,0,0,0,0,0,0,0,0,0,0,0,0,0,0,0,0,0,0,0,0,0,0,0,0,0,0.8529714345932007,1,0,3
11112,-1.7034885883331299,-9.660964012145996,0,0,0,0,20,5,-40,101325,25,0,0,0,0,0,0,0,0,0,0,0,0,0,0,0,0,0,0,0,0,0,0,0,0,0,0,0,0.8529714345932007,1,0,3
11122,-1.7034885883331299,-9.660964012145996,0,0,0,0,20,5,-40,101325,25,0,0,0,0,0,0,0,0,0,0,0,0,0,0,0,0,0,0,0,0,0,0,0,0,0,0,0,0.8240571618080139,1,0,3
11132,-1.7034885883331299,-9.660964012145996,0,0,0,0,20,5,-40,101325,25,0,0,0,0,0,0,0,0,0,0,0,0,0,0,0,0,0,0,0,0,0,0,0,0,0,0,0,0.8240571618080139,1,0,3
11142,-1.7034885883331299,-9.660964012145996,0,0,0,0,20,5,-40,101325,25,0,0,0,0,0,0,0,0,0,0,0,0,0,0,0,0,0,0,0,0,0,0,0,0,0,0,0,0.8240571618080139,1,0,3
11152,-1.7034885883331299,-9.660964012145996,0,0,0,0,20,5,-40,101325,25,0,0,0,0,0,0,0,0,0,0,0,0,0,0,0,0,0,0,0,0,0,0,0,0,0,0,0,0.8240571618080139,1,0,3
11162,-1.7034885883331299,-9.660964012145996,0,0,0,0,20,5,-40,101325,25,0,0,0,0,0,0,0,0,0,0,0,0,0,0,0,0,0,0,0,0,0,0,0,0,0,0,0,0.8240571618080139,1,0,3
11172,-1.7034885883331299,-9.660964012145996,0,0,0,0,20,5,-40,101325,25,0,0,0,0,0,0,0,0,0,0,0,0,0,0,0,0,0,0,0,0,0,0,0,0,0,0,0,0.8240571618080139,1,0,3
11182,-1.7034885883331299,-9.660964012145996,0,0,0,0,20,5,-40,101325,25,0,0,0,0,0,0,0,0,0,0,0,0,0,0,0,0,0,0,0,0,0,0,0,0,0,0,0,0.8240571618080139,1,0,3
11192,-1.7034885883331299,-9.660964012145996,0,0,0,0,20,5,-40,101325,25,0,0,0,0,0,0,0,0,0,0,0,0,0,0,0,0,0,0,0,0,0,0,0,0,0,0,0,0.8240571618080139,1,0,3
11202,-1.7034885883331299,-9.660964012145996,0,0,0,0,20,5,-40,101325,25,0,0,0,0,0,0,0,0,0,0,0,0,0,0,0,0,0,0,0,0,0,0,0,0,0,0,0,0.8240571618080139,1,0,3
11212,-1.7034885883331299,-9.660964012145996,0,0,0,0,20,5,-40,101325,25,0,0,0,0,0,0,0,0,0,0,0,0,0,0,0,0,0,0,0,0,0,0,0,0,0,0,0,0.8240571618080139,1,0,3
11222,-1.7034885883331299,-9.660964012145996,0,0,0,0,20,5,-40,101325,25,0,0,0,0,0,0,0,0,0,0,0,0,0,0,0,0,0,0,0,0,0,0,0,0,0,0,0,0.8240571618080139,1,0,3
11232,-1.7034885883331299,-9.660964012145996,0,0,0,0,20,5,-40,101325,25,0,0,0,0,0,0,0,0,0,0,0,0,0,0,0,0,0,0,0,0,0,0,0,0,0,0,0,0.8240571618080139,1,0,3
11242,-1.7034885883331299,-9.660964012145996,0,0,0,0,20,5,-40,101325,25,0,0,0,0,0,0,0,0,0,0,0,0,0,0,0,0,0,0,0,0,0,0,0,0,0,0,0,0.8240571618080139,1,0,3
11252,-1.7034885883331299,-9.660964012145996,0,0,0,0,20,5,-40,101325,25,0,0,0,0,0,0,0,0,0,0,0,0,0,0,0,0,0,0,0,0,0,0,0,0,0,0,0,0.8240571618080139,1,0,3
11262,-1.7034885883331299,-9.660964012145996,0,0,0,0,20,5,-40,101325,25,0,0,0,0,0,0,0,0,0,0,0,0,0,0,0,0,0,0,0,0,0,0,0,0,0,0,0,0.8240571618080139,1,0,3
11272,-1.7034885883331299,-9.660964012145996,0,0,0,0,20,5,-40,101325,25,0,0,0,0,0,0,0,0,0,0,0,0,0,0,0,0,0,0,0,0,0,0,0,0,0,0,0,0.8240571618080139,1,0,3
11282,-1.7034885883331299,-9.660964012145996,0,0,0,0,20,5,-40,101325,25,0,0,0,0,0,0,0,0,0,0,0,0,0,0,0,0,0,0,0,0,0,0,0,0,0,0,0,0.8240571618080139,1,0,3
11292,-1.7034885883331299,-9.660964012145996,0,0,0,0,20,5,-40,101325,25,0,0,0,0,0,0,0,0,0,0,0,0,0,0,0,0,0,0,0,0,0,0,0,0,0,0,0,0.8240571618080139,1,0,3
11302,-1.7034885883331299,-9.660964012145996,0,0,0,0,20,5,-40,101325,25,0,0,0,0,0,0,0,0,0,0,0,0,0,0,0,0,0,0,0,0,0,0,0,0,0,0,0,0.8240571618080139,1,0,3
11312,-1.7034885883331299,-9.660964012145996,0,0,0,0,20,5,-40,101325,25,0,0,0,0,0,0,0,0,0,0,0,0,0,0,0,0,0,0,0,0,0,0,0,0,0,0,0,0.8240571618080139,1,0,3
11322,-1.7034885883331299,-9.660964012145996,0,0,0,0,20,5,-40,101325,25,0,0,0,0,0,0,0,0,0,0,0,0,0,0,0,0,0,0,0,0,0,0,0,0,0,0,0,0.8240571618080139,1,0,3
11332,-1.7034885883331299,-9.660964012145996,0,0,0,0,20,5,-40,101325,25,0,0,0,0,0,0,0,0,0,0,0,0,0,0,0,0,0,0,0,0,0,0,0,0,0,0,0,0.8240571618080139,1,0,3
11342,-1.7034885883331299,-9.660964012145996,0,0,0,0,20,5,-40,101325,25,0,0,0,0,0,0,0,0,0,0,0,0,0,0,0,0,0,0,0,0,0,0,0,0,0,0,0,0.8240571618080139,1,0,3
11352,-1.7034885883331299,-9.660964012145996,0,0,0,0,20,5,-40,101325,25,0,0,0,0,0,0,0,0,0,0,0,0,0,0,0,0,0,0,0,0,0,0,0,0,0,0,0,0.8240571618080139,1,0,3
11362,-1.7034885883331299,-9.660964012145996,0,0,0,0,20,5,-40,101325,25,0,0,0,0,0,0,0,0,0,0,0,0,0,0,0,0,0,0,0,0,0,0,0,0,0,0,0,0.8240571618080139,1,0,3
11372,-1.7034885883331299,-9.660964012145996,0,0,0,0,20,5,-40,101325,25,0,0,0,0,0,0,0,0,0,0,0,0,0,0,0,0,0,0,0,0,0,0,0,0,0,0,0,0.8240571618080139,1,0,3
11382,-1.7034885883331299,-9.660964012145996,0,0,0,0,20,5,-40,101325,25,0,0,0,0,0,0,0,0,0,0,0,0,0,0,0,0,0,0,0,0,0,0,0,0,0,0,0,0.8240571618080139,1,0,3
11392,-1.7034885883331299,-9.660964012145996,0,0,0,0,20,5,-40,101325,25,0,0,0,0,0,0,0,0,0,0,0,0,0,0,0,0,0,0,0,0,0,0,0,0,0,0,0,0.8240571618080139,1,0,3
11402,-1.7034885883331299,-9.660964012145996,0,0,0,0,20,5,-40,101325,25,0,0,0,0,0,0,0,0,0,0,0,0,0,0,0,0,0,0,0,0,0,0,0,0,0,0,0,0.8240571618080139,1,0,3
11412,-1.7034885883331299,-9.660964012145996,0,0,0,0,20,5,-40,101325,25,0,0,0,0,0,0,0,0,0,0,0,0,0,0,0,0,0,0,0,0,0,0,0,0,0,0,0,0.8240571618080139,1,0,3
11422,-1.7034885883331299,-9.660964012145996,0,0,0,0,20,5,-40,101325,25,0,0,0,0,0,0,0,0,0,0,0,0,0,0,0,0,0,0,0,0,0,0,0,0,0,0,0,0.8240571618080139,1,0,3
11432,-1.7034885883331299,-9.660964012145996,0,0,0,0,20,5,-40,101325,25,0,0,0,0,0,0,0,0,0,0,0,0,0,0,0,0,0,0,0,0,0,0,0,0,0,0,0,0.8240571618080139,1,0,3
11442,-1.7034885883331299,-9.660964012145996,0,0,0,0,20,5,-40,101325,25,0,0,0,0,0,0,0,0,0,0,0,0,0,0,0,0,0,0,0,0,0,0,0,0,0,0,0,0.8240571618080139,1,0,3
11452,-1.7034885883331299,-9.660964012145996,0,0,0,0,20,5,-40,101325,25,0,0,0,0,0,0,0,0,0,0,0,0,0,0,0,0,0,0,0,0,0,0,0,0,0,0,0,0.8240571618080139,1,0,3
11462,-1.7034885883331299,-9.660964012145996,0,0,0,0,20,5,-40,101325,25,0,0,0,0,0,0,0,0,0,0,0,0,0,0,0,0,0,0,0,0,0,0,0,0,0,0,0,0.8240571618080139,1,0,3
11472,-1.7034885883331299,-9.660964012145996,0,0,0,0,20,5,-40,101325,25,0,0,0,0,0,0,0,0,0,0,0,0,0,0,0,0,0,0,0,0,0,0,0,0,0,0,0,0.8240571618080139,1,0,3
11482,-1.7034885883331299,-9.660964012145996,0,0,0,0,20,5,-40,101325,25,0,0,0,0,0,0,0,0,0,0,0,0,0,0,0,0,0,0,0,0,0,0,0,0,0,0,0,0.8240571618080139,1,0,3
11492,-1.7034885883331299,-9.660964012145996,0,0,0,0,20,5,-40,101325,25,0,0,0,0,0,0,0,0,0,0,0,0,0,0,0,0,0,0,0,0,0,0,0,0,0,0,0,0.8240571618080139,1,0,3
11502,-1.7034885883331299,-9.660964012145996,0,0,0,0,20,5,-40,101325,25,0,0,0,0,0,0,0,0,0,0,0,0,0,0,0,0,0,0,0,0,0,0,0,0,0,0,0,0.8240571618080139,1,0,3
11512,-1.7034885883331299,-9.660964012145996,0,0,0,0,20,5,-40,101325,25,0,0,0,0,0,0,0,0,0,0,0,0,0,0,0,0,0,0,0,0,0,0,0,0,0,0,0,0.8240571618080139,1,0,3
11522,-1.7034885883331299,-9.660964012145996,0,0,0,0,20,5,-40,101325,25,0,0,0,0,0,0,0,0,0,0,0,0,0,0,0,0,0,0,0,0,0,0,0,0,0,0,0,0.8240571618080139,1,0,3
11532,-1.7034885883331299,-9.660964012145996,0,0,0,0,20,5,-40,101325,25,0,0,0,0,0,0,0,0,0,0,0,0,0,0,0,0,0,0,0,0,0,0,0,0,0,0,0,0.8240571618080139,1,0,3
11542,-1.7034885883331299,-9.660964012145996,0,0,0,0,20,5,-40,101325,25,0,0,0,0,0,0,0,0,0,0,0,0,0,0,0,0,0,0,0,0,0,0,0,0,0,0,0,0.8240571618080139,1,0,3
11552,-1.7034885883331299,-9.660964012145996,0,0,0,0,20,5,-40,101325,25,0,0,0,0,0,0,0,0,0,0,0,0,0,0,0,0,0,0,0,0,0,0,0,0,0,0,0,0.8240571618080139,1,0,3
11562,-1.7034885883331299,-9.660964012145996,0,0,0,0,20,5,-40,101325,25,0,0,0,0,0,0,0,0,0,0,0,0,0,0,0,0,0,0,0,0,0,0,0,0,0,0,0,0.8240571618080139,1,0,3
11572,-1.7034885883331299,-9.660964012145996,0,0,0,0,20,5,-40,101325,25,0,0,0,0,0,0,0,0,0,0,0,0,0,0,0,0,0,0,0,0,0,0,0,0,0,0,0,0.8240571618080139,1,0,3
11582,-1.7034885883331299,-9.660964012145996,0,0,0,0,20,5,-40,101325,25,0,0,0,0,0,0,0,0,0,0,0,0,0,0,0,0,0,0,0,0,0,0,0,0,0,0,0,0.8240571618080139,1,0,3
11592,-1.7034885883331299,-9.660964012145996,0,0,0,0,20,5,-40,101325,25,0,0,0,0,0,0,0,0,0,0,0,0,0,0,0,0,0,0,0,0,0,0,0,0,0,0,0,0.8240571618080139,1,0,3
11602,-1.7034885883331299,-9.660964012145996,0,0,0,0,20,5,-40,101325,25,0,0,0,0,0,0,0,0,0,0,0,0,0,0,0,0,0,0,0,0,0,0,0,0,0,0,0,0.8240571618080139,1,0,3
11612,-1.7034885883331299,-9.660964012145996,0,0,0,0,20,5,-40,101325,25,0,0,0,0,0,0,0,0,0,0,0,0,0,0,0,0,0,0,0,0,0,0,0,0,0,0,0,0.8240571618080139,1,0,3
11622,-1.7034885883331299,-9.660964012145996,0,0,0,0,20,5,-40,101325,25,0,0,0,0,0,0,0,0,0,0,0,0,0,0,0,0,0,0,0,0,0,0,0,0,0,0,0,0.8240571618080139,1,0,3
11632,-1.7034885883331299,-9.660964012145996,0,0,0,0,20,5,-40,101325,25,0,0,0,0,0,0,0,0,0,0,0,0,0,0,0,0,0,0,0,0,0,0,0,0,0,0,0,0.8240571618080139,1,0,3
11642,-1.7034885883331299,-9.660964012145996,0,0,0,0,20,5,-40,101325,25,0,0,0,0,0,0,0,0,0,0,0,0,0,0,0,0,0,0,0,0,0,0,0,0,0,0,0,0.8240571618080139,1,0,3
11652,-1.7034885883331299,-9.660964012145996,0,0,0,0,20,5,-40,101325,25,0,0,0,0,0,0,0,0,0,0,0,0,0,0,0,0,0,0,0,0,0,0,0,0,0,0,0,0.8240571618080139,1,0,3
11662,-1.7034885883331299,-9.660964012145996,0,0,0,0,20,5,-40,101325,25,0,0,0,0,0,0,0,0,0,0,0,0,0,0,0,0,0,0,0,0,0,0,0,0,0,0,0,0.8240571618080139,1,0,3
11672,-1.7034885883331299,-9.660964012145996,0,0,0,0,20,5,-40,101325,25,0,0,0,0,0,0,0,0,0,0,0,0,0,0,0,0,0,0,0,0,0,0,0,0,0,0,0,0.8240571618080139,1,0,3
11682,-1.7034885883331299,-9.660964012145996,0,0,0,0,20,5,-40,101325,25,0,0,0,0,0,0,0,0,0,0,0,0,0,0,0,0,0,0,0,0,0,0,0,0,0,0,0,0.8240571618080139,1,0,3
11692,-1.7034885883331299,-9.660964012145996,0,0,0,0,20,5,-40,101325,25,0,0,0,0,0,0,0,0,0,0,0,0,0,0,0,0,0,0,0,0,0,0,0,0,0,0,0,0.8240571618080139,1,0,3
11702,-1.7034885883331299,-9.660964012145996,0,0,0,0,20,5,-40,101325,25,0,0,0,0,0,0,0,0,0,0,0,0,0,0,0,0,0,0,0,0,0,0,0,0,0,0,0,0.8240571618080139,1,0,3
11712,-1.7034885883331299,-9.660964012145996,0,0,0,0,20,5,-40,101325,25,0,0,0,0,0,0,0,0,0,0,0,0,0,0,0,0,0,0,0,0,0,0,0,0,0,0,0,0.8240571618080139,1,0,3
11722,-1.7034885883331299,-9.660964012145996,0,0,0,0,20,5,-40,101325,25,0,0,0,0,0,0,0,0,0,0,0,0,0,0,0,0,0,0,0,0,0,0,0,0,0,0,0,0.8240571618080139,1,0,3
11732,-1.7034885883331299,-9.660964012145996,0,0,0,0,20,5,-40,101325,25,0,0,0,0,0,0,0,0,0,0,0,0,0,0,0,0,0,0,0,0,0,0,0,0,0,0,0,0.8240571618080139,1,0,3
11742,-1.7034885883331299,-9.660964012145996,0,0,0,0,20,5,-40,101325,25,0,0,0,0,0,0,0,0,0,0,0,0,0,0,0,0,0,0,0,0,0,0,0,0,0,0,0,0.8240571618080139,1,0,3
11752,-1.7034885883331299,-9.660964012145996,0,0,0,0,20,5,-40,101325,25,0,0,0,0,0,0,0,0,0,0,0,0,0,0,0,0,0,0,0,0,0,0,0,0,0,0,0,0.8240571618080139,1,0,3
11762,-1.7034885883331299,-9.660964012145996,0,0,0,0,20,5,-40,101325,25,0,0,0,0,0,0,0,0,0,0,0,0,0,0,0,0,0,0,0,0,0,0,0,0,0,0,0,0.8240571618080139,1,0,3
11772,-1.7034885883331299,-9.660964012145996,0,0,0,0,20,5,-40,101325,25,0,0,0,0,0,0,0,0,0,0,0,0,0,0,0,0,0,0,0,0,0,0,0,0,0,0,0,0.8240571618080139,1,0,3
11782,-1.7034885883331299,-9.660964012145996,0,0,0,0,20,5,-40,101325,25,0,0,0,0,0,0,0,0,0,0,0,0,0,0,0,0,0,0,0,0,0,0,0,0,0,0,0,0.8240571618080139,1,0,3
11792,-1.7034885883331299,-9.660964012145996,0,0,0,0,20,5,-40,101325,25,0,0,0,0,0,0,0,0,0,0,0,0,0,0,0,0,0,0,0,0,0,0,0,0,0,0,0,0.8240571618080139,1,0,3
11802,-1.7034885883331299,-9.660964012145996,0,0,0,0,20,5,-40,101325,25,0,0,0,0,0,0,0,0,0,0,0,0,0,0,0,0,0,0,0,0,0,0,0,0,0,0,0,0.8240571618080139,1,0,3
11812,-1.7034885883331299,-9.660964012145996,0,0,0,0,20,5,-40,101325,25,0,0,0,0,0,0,0,0,0,0,0,0,0,0,0,0,0,0,0,0,0,0,0,0,0,0,0,0.8240571618080139,1,0,3
11822,-1.7034885883331299,-9.660964012145996,0,0,0,0,20,5,-40,101325,25,0,0,0,0,0,0,0,0,0,0,0,0,0,0,0,0,0,0,0,0,0,0,0,0,0,0,0,0.8240571618080139,1,0,3
11832,-1.7034885883331299,-9.660964012145996,0,0,0,0,20,5,-40,101325,25,0,0,0,0,0,0,0,0,0,0,0,0,0,0,0,0,0,0,0,0,0,0,0,0,0,0,0,0.8240571618080139,1,0,3
11842,-1.7034885883331299,-9.660964012145996,0,0,0,0,20,5,-40,101325,25,0,0,0,0,0,0,0,0,0,0,0,0,0,0,0,0,0,0,0,0,0,0,0,0,0,0,0,0.8240571618080139,1,0,3
11852,-1.7034885883331299,-9.660964012145996,0,0,0,0,20,5,-40,101325,25,0,0,0,0,0,0,0,0,0,0,0,0,0,0,0,0,0,0,0,0,0,0,0,0,0,0,0,0.8240571618080139,1,0,3
11862,-1.7034885883331299,-9.660964012145996,0,0,0,0,20,5,-40,101325,25,0,0,0,0,0,0,0,0,0,0,0,0,0,0,0,0,0,0,0,0,0,0,0,0,0,0,0,0.8240571618080139,1,0,3
11872,-1.7034885883331299,-9.660964012145996,0,0,0,0,20,5,-40,101325,25,0,0,0,0,0,0,0,0,0,0,0,0,0,0,0,0,0,0,0,0,0,0,0,0,0,0,0,0.8240571618080139,1,0,3
11882,-1.7034885883331299,-9.660964012145996,0,0,0,0,20,5,-40,101325,25,0,0,0,0,0,0,0,0,0,0,0,0,0,0,0,0,0,0,0,0,0,0,0,0,0,0,0,0.8240571618080139,1,0,3
11892,-1.7034885883331299,-9.660964012145996,0,0,0,0,20,5,-40,101325,25,0,0,0,0,0,0,0,0,0,0,0,0,0,0,0,0,0,0,0,0,0,0,0,0,0,0,0,0.8240571618080139,1,0,3
11902,-1.7034885883331299,-9.660964012145996,0,0,0,0,20,5,-40,101325,25,0,0,0,0,0,0,0,0,0,0,0,0,0,0,0,0,0,0,0,0,0,0,0,0,0,0,0,0.8240571618080139,1,0,3
11912,-1.7034885883331299,-9.660964012145996,0,0,0,0,20,5,-40,101325,25,0,0,0,0,0,0,0,0,0,0,0,0,0,0,0,0,0,0,0,0,0,0,0,0,0,0,0,0.8240571618080139,1,0,3
11922,-1.7034885883331299,-9.660964012145996,0,0,0,0,20,5,-40,101325,25,0,0,0,0,0,0,0,0,0,0,0,0,0,0,0,0,0,0,0,0,0,0,0,0,0,0,0,0.8240571618080139,1,0,3
11932,-1.7034885883331299,-9.660964012145996,0,0,0,0,20,5,-40,101325,25,0,0,0,0,0,0,0,0,0,0,0,0,0,0,0,0,0,0,0,0,0,0,0,0,0,0,0,0.8240571618080139,1,0,3
11942,-1.7034885883331299,-9.660964012145996,0,0,0,0,20,5,-40,101325,25,0,0,0,0,0,0,0,0,0,0,0,0,0,0,0,0,0,0,0,0,0,0,0,0,0,0,0,0.8240571618080139,1,0,3
11952,-1.7034885883331299,-9.660964012145996,0,0,0,0,20,5,-40,101325,25,0,0,0,0,0,0,0,0,0,0,0,0,0,0,0,0,0,0,0,0,0,0,0,0,0,0,0,0.8240571618080139,1,0,3
11962,-1.7034885883331299,-9.660964012145996,0,0,0,0,20,5,-40,101325,25,0,0,0,0,0,0,0,0,0,0,0,0,0,0,0,0,0,0,0,0,0,0,0,0,0,0,0,0.8240571618080139,1,0,3
11972,-1.7034885883331299,-9.660964012145996,0,0,0,0,20,5,-40,101325,25,0,0,0,0,0,0,0,0,0,0,0,0,0,0,0,0,0,0,0,0,0,0,0,0,0,0,0,0.8240571618080139,1,0,3
11982,-1.7034885883331299,-9.660964012145996,0,0,0,0,20,5,-40,101325,25,0,0,0,0,0,0,0,0,0,0,0,0,0,0,0,0,0,0,0,0,0,0,0,0,0,0,0,0.8240571618080139,1,0,3
11992,-1.7034885883331299,-9.660964012145996,0,0,0,0,20,5,-40,101325,25,0,0,0,0,0,0,0,0,0,0,0,0,0,0,0,0,0,0,0,0,0,0,0,0,0,0,0,0.8240571618080139,1,0,3
12002,-1.7034885883331299,-9.660964012145996,0,0,0,0,20,5,-40,101325,25,0,0,0,0,0,0,0,0,0,0,0,0,0,0,0,0,0,0,0,0,0,0,0,0,0,0,0,0.8240571618080139,1,0,3
12012,-1.7034885883331299,-9.660964012145996,0,0,0,0,20,5,-40,101325,25,0,0,0,0,0,0,0,0,0,0,0,0,0,0,0,0,0,0,0,0,0,0,0,0,0,0,0,0.8240571618080139,1,0,3
12022,-1.7034885883331299,-9.660964012145996,0,0,0,0,20,5,-40,101325,25,0,0,0,0,0,0,0,0,0,0,0,0,0,0,0,0,0,0,0,0,0,0,0,0,0,0,0,0.8240571618080139,1,0,3
12032,-1.7034885883331299,-9.660964012145996,0,0,0,0,20,5,-40,101325,25,0,0,0,0,0,0,0,0,0,0,0,0,0,0,0,0,0,0,0,0,0,0,0,0,0,0,0,0.8240571618080139,1,0,3
12042,-1.7034885883331299,-9.660964012145996,0,0,0,0,20,5,-40,101325,25,0,0,0,0,0,0,0,0,0,0,0,0,0,0,0,0,0,0,0,0,0,0,0,0,0,0,0,0.8240571618080139,1,0,3
12052,-1.7034885883331299,-9.660964012145996,0,0,0,0,20,5,-40,101325,25,0,0,0,0,0,0,0,0,0,0,0,0,0,0,0,0,0,0,0,0,0,0,0,0,0,0,0,0.8240571618080139,1,0,3
12062,-1.7034885883331299,-9.660964012145996,0,0,0,0,20,5,-40,101325,25,0,0,0,0,0,0,0,0,0,0,0,0,0,0,0,0,0,0,0,0,0,0,0,0,0,0,0,0.8240571618080139,1,0,3
12072,-1.7034885883331299,-9.660964012145996,0,0,0,0,20,5,-40,101325,25,0,0,0,0,0,0,0,0,0,0,0,0,0,0,0,0,0,0,0,0,0,0,0,0,0,0,0,0.8240571618080139,1,0,3
12082,-1.7034885883331299,-9.660964012145996,0,0,0,0,20,5,-40,101325,25,0,0,0,0,0,0,0,0,0,0,0,0,0,0,0,0,0,0,0,0,0,0,0,0,0,0,0,0.8240571618080139,1,0,3
12092,-1.7034885883331299,-9.660964012145996,0,0,0,0,20,5,-40,101325,25,0,0,0,0,0,0,0,0,0,0,0,0,0,0,0,0,0,0,0,0,0,0,0,0,0,0,0,0.8240571618080139,1,0,3
12102,-1.7034885883331299,-9.660964012145996,0,0,0,0,20,5,-40,101325,25,0,0,0,0,0,0,0,0,0,0,0,0,0,0,0,0,0,0,0,0,0,0,0,0,0,0,0,0.8240571618080139,1,0,3
12112,-1.7034885883331299,-9.660964012145996,0,0,0,0,20,5,-40,101325,25,0,0,0,0,0,0,0,0,0,0,0,0,0,0,0,0,0,0,0,0,0,0,0,0,0,0,0,0.8240571618080139,1,0,3
12122,-1.7034885883331299,-9.660964012145996,0,0,0,0,20,5,-40,101325,25,0,0,0,0,0,0,0,0,0,0,0,0,0,0,0,0,0,0,0,0,0,0,0,0,0,0,0,0.8240571618080139,1,0,3
12132,-1.7034885883331299,-9.660964012145996,0,0,0,0,20,5,-40,101325,25,0,0,0,0,0,0,0,0,0,0,0,0,0,0,0,0,0,0,0,0,0,0,0,0,0,0,0,0.8240571618080139,1,0,3
12142,-1.7034885883331299,-9.660964012145996,0,0,0,0,20,5,-40,101325,25,0,0,0,0,0,0,0,0,0,0,0,0,0,0,0,0,0,0,0,0,0,0,0,0,0,0,0,0.8240571618080139,1,0,3
12152,-1.7034885883331299,-9.660964012145996,0,0,0,0,20,5,-40,101325,25,0,0,0,0,0,0,0,0,0,0,0,0,0,0,0,0,0,0,0,0,0,0,0,0,0,0,0,0.8240571618080139,1,0,3
12162,-1.7034885883331299,-9.660964012145996,0,0,0,0,20,5,-40,101325,25,0,0,0,0,0,0,0,0,0,0,0,0,0,0,0,0,0,0,0,0,0,0,0,0,0,0,0,0.8240571618080139,1,0,3
12172,-1.7034885883331299,-9.660964012145996,0,0,0,0,20,5,-40,101325,25,0,0,0,0,0,0,0,0,0,0,0,0,0,0,0,0,0,0,0,0,0,0,0,0,0,0,0,0.8240571618080139,1,0,3
12182,-1.7034885883331299,-9.660964012145996,0,0,0,0,20,5,-40,101325,25,0,0,0,0,0,0,0,0,0,0,0,0,0,0,0,0,0,0,0,0,0,0,0,0,0,0,0,0.8240571618080139,1,0,3
12192,-1.7034885883331299,-9.660964012145996,0,0,0,0,20,5,-40,101325,25,0,0,0,0,0,0,0,0,0,0,0,0,0,0,0,0,0,0,0,0,0,0,0,0,0,0,0,0.8240571618080139,1,0,3
12202,-1.7034885883331299,-9.660964012145996,0,0,0,0,20,5,-40,101325,25,0,0,0,0,0,0,0,0,0,0,0,0,0,0,0,0,0,0,0,0,0,0,0,0,0,0,0,0.8240571618080139,1,0,3
12212,-1.7034885883331299,-9.660964012145996,0,0,0,0,20,5,-40,101325,25,0,0,0,0,0,0,0,0,0,0,0,0,0,0,0,0,0,0,0,0,0,0,0,0,0,0,0,0.8240571618080139,1,0,3
12222,-1.7034885883331299,-9.660964012145996,0,0,0,0,20,5,-40,101325,25,0,0,0,0,0,0,0,0,0,0,0,0,0,0,0,0,0,0,0,0,0,0,0,0,0,0,0,0.8240571618080139,1,0,3
12232,-1.7034885883331299,-9.660964012145996,0,0,0,0,20,5,-40,101325,25,0,0,0,0,0,0,0,0,0,0,0,0,0,0,0,0,0,0,0,0,0,0,0,0,0,0,0,0.8240571618080139,1,0,3
12242,-1.7034885883331299,-9.660964012145996,0,0,0,0,20,5,-40,101325,25,0,0,0,0,0,0,0,0,0,0,0,0,0,0,0,0,0,0,0,0,0,0,0,0,0,0,0,0.8240571618080139,1,0,3
12252,-1.7034885883331299,-9.660964012145996,0,0,0,0,20,5,-40,101325,25,0,0,0,0,0,0,0,0,0,0,0,0,0,0,0,0,0,0,0,0,0,0,0,0,0,0,0,0.8240571618080139,1,0,3
12262,-1.7034885883331299,-9.660964012145996,0,0,0,0,20,5,-40,101325,25,0,0,0,0,0,0,0,0,0,0,0,0,0,0,0,0,0,0,0,0,0,0,0,0,0,0,0,0.8240571618080139,1,0,3
12272,-1.7034885883331299,-9.660964012145996,0,0,0,0,20,5,-40,101325,25,0,0,0,0,0,0,0,0,0,0,0,0,0,0,0,0,0,0,0,0,0,0,0,0,0,0,0,0.8240571618080139,1,0,3
12282,-1.7034885883331299,-9.660964012145996,0,0,0,0,20,5,-40,101325,25,0,0,0,0,0,0,0,0,0,0,0,0,0,0,0,0,0,0,0,0,0,0,0,0,0,0,0,0.8240571618080139,1,0,3
12292,-1.7034885883331299,-9.660964012145996,0,0,0,0,20,5,-40,101325,25,0,0,0,0,0,0,0,0,0,0,0,0,0,0,0,0,0,0,0,0,0,0,0,0,0,0,0,0.8240571618080139,1,0,3
12302,-1.7034885883331299,-9.660964012145996,0,0,0,0,20,5,-40,101325,25,0,0,0,0,0,0,0,0,0,0,0,0,0,0,0,0,0,0,0,0,0,0,0,0,0,0,0,0.8240571618080139,1,0,3
12312,-1.7034885883331299,-9.660964012145996,0,0,0,0,20,5,-40,101325,25,0,0,0,0,0,0,0,0,0,0,0,0,0,0,0,0,0,0,0,0,0,0,0,0,0,0,0,0.8240571618080139,1,0,3
12322,-1.7034885883331299,-9.660964012145996,0,0,0,0,20,5,-40,101325,25,0,0,0,0,0,0,0,0,0,0,0,0,0,0,0,0,0,0,0,0,0,0,0,0,0,0,0,0.8240571618080139,1,0,3
12332,-1.7034885883331299,-9.660964012145996,0,0,0,0,20,5,-40,101325,25,0,0,0,0,0,0,0,0,0,0,0,0,0,0,0,0,0,0,0,0,0,0,0,0,0,0,0,0.8240571618080139,1,0,3
12342,-1.7034885883331299,-9.660964012145996,0,0,0,0,20,5,-40,101325,25,0,0,0,0,0,0,0,0,0,0,0,0,0,0,0,0,0,0,0,0,0,0,0,0,0,0,0,0.8240571618080139,1,0,3
12352,-1.7034885883331299,-9.660964012145996,0,0,0,0,20,5,-40,101325,25,0,0,0,0,0,0,0,0,0,0,0,0,0,0,0,0,0,0,0,0,0,0,0,0,0,0,0,0.8240571618080139,1,0,3
12362,-1.7034885883331299,-9.660964012145996,0,0,0,0,20,5,-40,101325,25,0,0,0,0,0,0,0,0,0,0,0,0,0,0,0,0,0,0,0,0,0,0,0,0,0,0,0,0.8240571618080139,1,0,3
12372,-1.7034885883331299,-9.660964012145996,0,0,0,0,20,5,-40,101325,25,0,0,0,0,0,0,0,0,0,0,0,0,0,0,0,0,0,0,0,0,0,0,0,0,0,0,0,0.8240571618080139,1,0,3
12382,-1.7034885883331299,-9.660964012145996,0,0,0,0,20,5,-40,101325,25,0,0,0,0,0,0,0,0,0,0,0,0,0,0,0,0,0,0,0,0,0,0,0,0,0,0,0,0.8240571618080139,1,0,3
12392,-1.7034885883331299,-9.660964012145996,0,0,0,0,20,5,-40,101325,25,0,0,0,0,0,0,0,0,0,0,0,0,0,0,0,0,0,0,0,0,0,0,0,0,0,0,0,0.8240571618080139,1,0,3
12402,-1.7034885883331299,-9.660964012145996,0,0,0,0,20,5,-40,101325,25,0,0,0,0,0,0,0,0,0,0,0,0,0,0,0,0,0,0,0,0,0,0,0,0,0,0,0,0.8240571618080139,1,0,3
12412,-1.7034885883331299,-9.660964012145996,0,0,0,0,20,5,-40,101325,25,0,0,0,0,0,0,0,0,0,0,0,0,0,0,0,0,0,0,0,0,0,0,0,0,0,0,0,0.8240571618080139,1,0,3
12422,-1.7034885883331299,-9.660964012145996,0,0,0,0,20,5,-40,101325,25,0,0,0,0,0,0,0,0,0,0,0,0,0,0,0,0,0,0,0,0,0,0,0,0,0,0,0,0.8240571618080139,1,0,3
12432,-1.7034885883331299,-9.660964012145996,0,0,0,0,20,5,-40,101325,25,0,0,0,0,0,0,0,0,0,0,0,0,0,0,0,0,0,0,0,0,0,0,0,0,0,0,0,0.8240571618080139,1,0,3
12442,-1.7034885883331299,-9.660964012145996,0,0,0,0,20,5,-40,101325,25,0,0,0,0,0,0,0,0,0,0,0,0,0,0,0,0,0,0,0,0,0,0,0,0,0,0,0,0.8240571618080139,1,0,3
12452,-1.7034885883331299,-9.660964012145996,0,0,0,0,20,5,-40,101325,25,0,0,0,0,0,0,0,0,0,0,0,0,0,0,0,0,0,0,0,0,0,0,0,0,0,0,0,0.8240571618080139,1,0,3
12462,-1.7034885883331299,-9.660964012145996,0,0,0,0,20,5,-40,101325,25,0,0,0,0,0,0,0,0,0,0,0,0,0,0,0,0,0,0,0,0,0,0,0,0,0,0,0,0.8240571618080139,1,0,3
12472,-1.7034885883331299,-9.660964012145996,0,0,0,0,20,5,-40,101325,25,0,0,0,0,0,0,0,0,0,0,0,0,0,0,0,0,0,0,0,0,0,0,0,0,0,0,0,0.8240571618080139,1,0,3
12482,-1.7034885883331299,-9.660964012145996,0,0,0,0,20,5,-40,101325,25,0,0,0,0,0,0,0,0,0,0,0,0,0,0,0,0,0,0,0,0,0,0,0,0,0,0,0,0.8240571618080139,1,0,3
12492,-1.7034885883331299,-9.660964012145996,0,0,0,0,20,5,-40,101325,25,0,0,0,0,0,0,0,0,0,0,0,0,0,0,0,0,0,0,0,0,0,0,0,0,0,0,0,0.8240571618080139,1,0,3
12502,-1.7034885883331299,-9.660964012145996,0,0,0,0,20,5,-40,101325,25,0,0,0,0,0,0,0,0,0,0,0,0,0,0,0,0,0,0,0,0,0,0,0,0,0,0,0,0.8240571618080139,1,0,3
12512,-1.7034885883331299,-9.660964012145996,0,0,0,0,20,5,-40,101325,25,0,0,0,0,0,0,0,0,0,0,0,0,0,0,0,0,0,0,0,0,0,0,0,0,0,0,0,0.8240571618080139,1,0,3
12522,-1.7034885883331299,-9.660964012145996,0,0,0,0,20,5,-40,101325,25,0,0,0,0,0,0,0,0,0,0,0,0,0,0,0,0,0,0,0,0,0,0,0,0,0,0,0,0.8240571618080139,1,0,3
12532,-1.7034885883331299,-9.660964012145996,0,0,0,0,20,5,-40,101325,25,0,0,0,0,0,0,0,0,0,0,0,0,0,0,0,0,0,0,0,0,0,0,0,0,0,0,0,0.8240571618080139,1,0,3
12542,-1.7034885883331299,-9.660964012145996,0,0,0,0,20,5,-40,101325,25,0,0,0,0,0,0,0,0,0,0,0,0,0,0,0,0,0,0,0,0,0,0,0,0,0,0,0,0.8240571618080139,1,0,3
12552,-1.7034885883331299,-9.660964012145996,0,0,0,0,20,5,-40,101325,25,0,0,0,0,0,0,0,0,0,0,0,0,0,0,0,0,0,0,0,0,0,0,0,0,0,0,0,0.8240571618080139,1,0,3
12562,-1.7034885883331299,-9.660964012145996,0,0,0,0,20,5,-40,101325,25,0,0,0,0,0,0,0,0,0,0,0,0,0,0,0,0,0,0,0,0,0,0,0,0,0,0,0,0.8240571618080139,1,0,3
12572,-1.7034885883331299,-9.660964012145996,0,0,0,0,20,5,-40,101325,25,0,0,0,0,0,0,0,0,0,0,0,0,0,0,0,0,0,0,0,0,0,0,0,0,0,0,0,0.8240571618080139,1,0,3
12582,-1.7034885883331299,-9.660964012145996,0,0,0,0,20,5,-40,101325,25,0,0,0,0,0,0,0,0,0,0,0,0,0,0,0,0,0,0,0,0,0,0,0,0,0,0,0,0.8240571618080139,1,0,3
12592,-1.7034885883331299,-9.660964012145996,0,0,0,0,20,5,-40,101325,25,0,0,0,0,0,0,0,0,0,0,0,0,0,0,0,0,0,0,0,0,0,0,0,0,0,0,0,0.8240571618080139,1,0,3
12602,-1.7034885883331299,-9.660964012145996,0,0,0,0,20,5,-40,101325,25,0,0,0,0,0,0,0,0,0,0,0,0,0,0,0,0,0,0,0,0,0,0,0,0,0,0,0,0.8240571618080139,1,0,3
12612,-1.7034885883331299,-9.660964012145996,0,0,0,0,20,5,-40,101325,25,0,0,0,0,0,0,0,0,0,0,0,0,0,0,0,0,0,0,0,0,0,0,0,0,0,0,0,0.8240571618080139,1,0,3
12622,-1.7034885883331299,-9.660964012145996,0,0,0,0,20,5,-40,101325,25,0,0,0,0,0,0,0,0,0,0,0,0,0,0,0,0,0,0,0,0,0,0,0,0,0,0,0,0.8457428812980652,1,0,3
12632,-1.7034885883331299,-9.660964012145996,0,0,0,0,20,5,-40,101325,25,0,0,0,0,0,0,0,0,0,0,0,0,0,0,0,0,0,0,0,0,0,0,0,0,0,0,0,0.8457428812980652,1,0,3
12642,-1.7034885883331299,-9.660964012145996,0,0,0,0,20,5,-40,101325,25,0,0,0,0,0,0,0,0,0,0,0,0,0,0,0,0,0,0,0,0,0,0,0,0,0,0,0,0.8457428812980652,1,0,3
12652,-1.7034885883331299,-9.660964012145996,0,0,0,0,20,5,-40,101325,25,0,0,0,0,0,0,0,0,0,0,0,0,0,0,0,0,0,0,0,0,0,0,0,0,0,0,0,0.8457428812980652,1,0,3
12662,-1.7034885883331299,-9.660964012145996,0,0,0,0,20,5,-40,101325,25,0,0,0,0,0,0,0,0,0,0,0,0,0,0,0,0,0,0,0,0,0,0,0,0,0,0,0,0.8457428812980652,1,0,3
12672,-1.7034885883331299,-9.660964012145996,0,0,0,0,20,5,-40,101325,25,0,0,0,0,0,0,0,0,0,0,0,0,0,0,0,0,0,0,0,0,0,0,0,0,0,0,0,0.8457428812980652,1,0,3
12682,-1.7034885883331299,-9.660964012145996,0,0,0,0,20,5,-40,101325,25,0,0,0,0,0,0,0,0,0,0,0,0,0,0,0,0,0,0,0,0,0,0,0,0,0,0,0,0.8457428812980652,1,0,3
12692,-1.7034885883331299,-9.660964012145996,0,0,0,0,20,5,-40,101325,25,0,0,0,0,0,0,0,0,0,0,0,0,0,0,0,0,0,0,0,0,0,0,0,0,0,0,0,0.8457428812980652,1,0,3
12702,-1.7034885883331299,-9.660964012145996,0,0,0,0,20,5,-40,101325,25,0,0,0,0,0,0,0,0,0,0,0,0,0,0,0,0,0,0,0,0,0,0,0,0,0,0,0,0.8457428812980652,1,0,3
12712,-1.7034885883331299,-9.660964012145996,0,0,0,0,20,5,-40,101325,25,0,0,0,0,0,0,0,0,0,0,0,0,0,0,0,0,0,0,0,0,0,0,0,0,0,0,0,0.8457428812980652,1,0,3
12722,-1.7034885883331299,-9.660964012145996,0,0,0,0,20,5,-40,101325,25,0,0,0,0,0,0,0,0,0,0,0,0,0,0,0,0,0,0,0,0,0,0,0,0,0,0,0,0.8457428812980652,1,0,3
12732,-1.7034885883331299,-9.660964012145996,0,0,0,0,20,5,-40,101325,25,0,0,0,0,0,0,0,0,0,0,0,0,0,0,0,0,0,0,0,0,0,0,0,0,0,0,0,0.8457428812980652,1,0,3
12742,-1.7034885883331299,-9.660964012145996,0,0,0,0,20,5,-40,101325,25,0,0,0,0,0,0,0,0,0,0,0,0,0,0,0,0,0,0,0,0,0,0,0,0,0,0,0,0.8457428812980652,1,0,3
12752,-1.7034885883331299,-9.660964012145996,0,0,0,0,20,5,-40,101325,25,0,0,0,0,0,0,0,0,0,0,0,0,0,0,0,0,0,0,0,0,0,0,0,0,0,0,0,0.8457428812980652,1,0,3
12762,-1.7034885883331299,-9.660964012145996,0,0,0,0,20,5,-40,101325,25,0,0,0,0,0,0,0,0,0,0,0,0,0,0,0,0,0,0,0,0,0,0,0,0,0,0,0,0.8457428812980652,1,0,3
12772,-1.7034885883331299,-9.660964012145996,0,0,0,0,20,5,-40,101325,25,0,0,0,0,0,0,0,0,0,0,0,0,0,0,0,0,0,0,0,0,0,0,0,0,0,0,0,0.8457428812980652,1,0,3
12782,-1.7034885883331299,-9.660964012145996,0,0,0,0,20,5,-40,101325,25,0,0,0,0,0,0,0,0,0,0,0,0,0,0,0,0,0,0,0,0,0,0,0,0,0,0,0,0.8457428812980652,1,0,3
12792,-1.7034885883331299,-9.660964012145996,0,0,0,0,20,5,-40,101325,25,0,0,0,0,0,0,0,0,0,0,0,0,0,0,0,0,0,0,0,0,0,0,0,0,0,0,0,0.8457428812980652,1,0,3
12802,-1.7034885883331299,-9.660964012145996,0,0,0,0,20,5,-40,101325,25,0,0,0,0,0,0,0,0,0,0,0,0,0,0,0,0,0,0,0,0,0,0,0,0,0,0,0,0.8457428812980652,1,0,3
12812,-1.7034885883331299,-9.660964012145996,0,0,0,0,20,5,-40,101325,25,0,0,0,0,0,0,0,0,0,0,0,0,0,0,0,0,0,0,0,0,0,0,0,0,0,0,0,0.8457428812980652,1,0,3
12822,-1.7034885883331299,-9.660964012145996,0,0,0,0,20,5,-40,101325,25,0,0,0,0,0,0,0,0,0,0,0,0,0,0,0,0,0,0,0,0,0,0,0,0,0,0,0,0.8457428812980652,1,0,3
12832,-1.7034885883331299,-9.660964012145996,0,0,0,0,20,5,-40,101325,25,0,0,0,0,0,0,0,0,0,0,0,0,0,0,0,0,0,0,0,0,0,0,0,0,0,0,0,0.8457428812980652,1,0,3
12842,-1.7034885883331299,-9.660964012145996,0,0,0,0,20,5,-40,101325,25,0,0,0,0,0,0,0,0,0,0,0,0,0,0,0,0,0,0,0,0,0,0,0,0,0,0,0,0.8457428812980652,1,0,3
12852,-1.7034885883331299,-9.660964012145996,0,0,0,0,20,5,-40,101325,25,0,0,0,0,0,0,0,0,0,0,0,0,0,0,0,0,0,0,0,0,0,0,0,0,0,0,0,0.8457428812980652,1,0,3
12862,-1.7034885883331299,-9.660964012145996,0,0,0,0,20,5,-40,101325,25,0,0,0,0,0,0,0,0,0,0,0,0,0,0,0,0,0,0,0,0,0,0,0,0,0,0,0,0.8457428812980652,1,0,3
12872,-1.7034885883331299,-9.660964012145996,0,0,0,0,20,5,-40,101325,25,0,0,0,0,0,0,0,0,0,0,0,0,0,0,0,0,0,0,0,0,0,0,0,0,0,0,0,0.8457428812980652,1,0,3
12882,-1.7034885883331299,-9.660964012145996,0,0,0,0,20,5,-40,101325,25,0,0,0,0,0,0,0,0,0,0,0,0,0,0,0,0,0,0,0,0,0,0,0,0,0,0,0,0.8457428812980652,1,0,3
12892,-1.7034885883331299,-9.660964012145996,0,0,0,0,20,5,-40,101325,25,0,0,0,0,0,0,0,0,0,0,0,0,0,0,0,0,0,0,0,0,0,0,0,0,0,0,0,0.8457428812980652,1,0,3
12902,-1.7034885883331299,-9.660964012145996,0,0,0,0,20,5,-40,101325,25,0,0,0,0,0,0,0,0,0,0,0,0,0,0,0,0,0,0,0,0,0,0,0,0,0,0,0,0.8457428812980652,1,0,3
12912,-1.7034885883331299,-9.660964012145996,0,0,0,0,20,5,-40,101325,25,0,0,0,0,0,0,0,0,0,0,0,0,0,0,0,0,0,0,0,0,0,0,0,0,0,0,0,0.8457428812980652,1,0,3
12922,-1.7034885883331299,-9.660964012145996,0,0,0,0,20,5,-40,101325,25,0,0,0,0,0,0,0,0,0,0,0,0,0,0,0,0,0,0,0,0,0,0,0,0,0,0,0,0.8457428812980652,1,0,3
12932,-1.7034885883331299,-9.660964012145996,0,0,0,0,20,5,-40,101325,25,0,0,0,0,0,0,0,0,0,0,0,0,0,0,0,0,0,0,0,0,0,0,0,0,0,0,0,0.8457428812980652,1,0,3
12942,-1.7034885883331299,-9.660964012145996,0,0,0,0,20,5,-40,101325,25,0,0,0,0,0,0,0,0,0,0,0,0,0,0,0,0,0,0,0,0,0,0,0,0,0,0,0,0.8457428812980652,1,0,3
12952,-1.7034885883331299,-9.660964012145996,0,0,0,0,20,5,-40,101325,25,0,0,0,0,0,0,0,0,0,0,0,0,0,0,0,0,0,0,0,0,0,0,0,0,0,0,0,0.8457428812980652,1,0,3
