Ax,Ay,Az,Gx,Gy,Gz,id,ts
0.6227050781250001,-9.666298828125,1.063388671875,0.2801120448179272,-1.2605042016806722,-0.2801120448179272,IMU0,-0.755
0.536484375,-9.608818359375,1.07296875,0.21008403361344538,-1.3305322128851542,-0.2801120448179272,IMU0,-0.745
0.6035449218750001,-9.666298828125,1.0538085937500001,0.1400560224089636,-1.2605042016806722,-0.2801120448179272,IMU0,-0.735
0.5460644531250001,-9.627978515625001,1.0921289062500001,0.1400560224089636,-1.1904761904761905,-0.2801120448179272,IMU0,-0.725
0.5460644531250001,-9.627978515625001,1.044228515625,0.0700280112044818,-1.1204481792717087,-0.2801120448179272,IMU0,-0.715
0.613125,-9.647138671875,1.0346484375,0.0700280112044818,-0.9103641456582633,-0.2801120448179272,IMU0,-0.705
0.5077441406250001,-9.63755859375,1.1112890625,0.1400560224089636,-0.9103641456582633,-0.2801120448179272,IMU0,-0.695
0.689765625,-9.647138671875,1.101708984375,0.1400560224089636,-1.1904761904761905,-0.350140056022409,IMU0,-0.685
0.46942382812500005,-9.627978515625001,1.063388671875,0.1400560224089636,-1.7507002801120448,-0.2801120448179272,IMU0,-0.675
0.689765625,-9.627978515625001,1.1112890625,0.2801120448179272,-2.100840336134454,-0.2801120448179272,IMU0,-0.665
0.613125,-9.733359375000001,0.9963281250000001,0.1400560224089636,-1.7507002801120448,-0.2801120448179272,IMU0,-0.655
0.44068359375000005,-9.551337890625001,1.1687695312500002,0.350140056022409,-2.030812324929972,-0.2801120448179272,IMU0,-0.645
1.044228515625,-9.378896484375,0.9580078125000001,0.0,-1.9607843137254903,-0.350140056022409,IMU0,-0.635
0.9675878906250001,-9.9249609375,1.0154882812500001,0.1400560224089636,-0.700280112044818,-0.2801120448179272,IMU0,-0.625
0.5077441406250001,-9.311835937500001,1.025068359375,0.0,-0.42016806722689076,-0.2801120448179272,IMU0,-0.615
0.55564453125,-9.685458984375,1.149609375,0.8403361344537815,0.0700280112044818,-0.21008403361344538,IMU0,-0.605
0.775986328125,-9.81,0.9388476562500001,0.0,-0.350140056022409,-0.21008403361344538,IMU0,-0.595
0.38320312500000003,-9.589658203125001,1.178349609375,1.2605042016806722,-2.801120448179272,-0.2801120448179272,IMU0,-0.585
0.833466796875,-9.484277343750001,0.9963281250000001,0.9803921568627452,-2.5910364145658265,-0.2801120448179272,IMU0,-0.575
0.5652246093750001,-9.695039062500001,1.2549902343750001,-0.8403361344537815,-1.1204481792717087,-0.21008403361344538,IMU0,-0.565
0.7664062500000001,-9.819580078125,0.9675878906250001,-0.700280112044818,-0.6302521008403361,-0.2801120448179272,IMU0,-0.555
0.38320312500000003,-9.522597656250001,1.082548828125,0.42016806722689076,-0.8403361344537815,-0.1400560224089636,IMU0,-0.545
0.814306640625,-9.4651171875,0.9675878906250001,0.350140056022409,0.1400560224089636,-0.350140056022409,IMU0,-0.535
0.6035449218750001,-9.704619140625,1.22625,-0.1400560224089636,0.5602240896358543,-0.21008403361344538,IMU0,-0.525
0.44068359375000005,-9.7716796875,1.274150390625,-0.6302521008403361,0.0,-0.1400560224089636,IMU0,-0.515
0.9675878906250001,-9.522597656250001,0.9675878906250001,-0.350140056022409,-0.6302521008403361,-0.350140056022409,IMU0,-0.505
0.18202148437500001,-9.560917968750001,1.2166699218750001,0.2801120448179272,-1.050420168067227,-0.1400560224089636,IMU0,-0.495
0.8430468750000001,-9.695039062500001,0.9963281250000001,0.4901960784313726,-0.9103641456582633,-0.350140056022409,IMU0,-0.485
0.24908203125000003,-9.67587890625,1.178349609375,1.1204481792717087,-2.030812324929972,-0.21008403361344538,IMU0,-0.475
0.63228515625,-9.474697265625,0.7855664062500001,0.0700280112044818,-1.050420168067227,-0.2801120448179272,IMU0,-0.465
0.7280859375000001,-9.819580078125,1.22625,-0.0700280112044818,-1.6106442577030813,-0.2801120448179272,IMU0,-0.455
0.38320312500000003,-9.59923828125,0.871787109375,-0.350140056022409,-2.3109243697478994,-0.21008403361344538,IMU0,-0.445
0.852626953125,-9.532177734375,1.0921289062500001,-0.21008403361344538,-1.9607843137254903,-0.2801120448179272,IMU0,-0.435
0.39278320312500004,-9.656718750000001,1.025068359375,-0.2801120448179272,0.0700280112044818,-0.21008403361344538,IMU0,-0.425
0.910107421875,-9.695039062500001,1.101708984375,0.1400560224089636,-0.21008403361344538,-0.350140056022409,IMU0,-0.415
0.316142578125,-9.7716796875,0.8047265625000001,1.1204481792717087,-0.700280112044818,-0.2801120448179272,IMU0,-0.405
0.613125,-9.244775390625001,1.101708984375,-0.0700280112044818,0.350140056022409,-0.2801120448179272,IMU0,-0.395
0.6227050781250001,-9.704619140625,1.1304492187500002,0.2801120448179272,-0.4901960784313726,-0.2801120448179272,IMU0,-0.385
0.5077441406250001,-9.972861328125001,1.063388671875,-0.2801120448179272,-0.700280112044818,-0.21008403361344538,IMU0,-0.375
0.775986328125,-9.4651171875,1.2454101562500002,-0.1400560224089636,-1.400560224089636,-0.21008403361344538,IMU0,-0.365
0.55564453125,-9.388476562500001,0.890947265625,1.050420168067227,-2.5910364145658265,-0.2801120448179272,IMU0,-0.355
0.833466796875,-9.896220703125001,1.1112890625,0.6302521008403361,-2.801120448179272,-0.42016806722689076,IMU0,-0.345
0.24908203125000003,-9.781259765625,1.063388671875,0.7703081232492998,-2.030812324929972,-0.2801120448179272,IMU0,-0.335
1.178349609375,-9.5034375,1.3316308593750001,0.7703081232492998,-1.3305322128851542,-0.350140056022409,IMU0,-0.325
0.42152343750000004,-9.4651171875,0.9580078125000001,0.6302521008403361,-1.1204481792717087,-0.21008403361344538,IMU0,-0.315
0.7472460937500001,-9.781259765625,1.43701171875,0.0700280112044818,-0.350140056022409,-0.350140056022409,IMU0,-0.305
0.6035449218750001,-10.011181640625,0.814306640625,0.0,-0.9803921568627452,-0.21008403361344538,IMU0,-0.295
0.55564453125,-9.311835937500001,1.2454101562500002,0.0,-0.700280112044818,-0.2801120448179272,IMU0,-0.285
0.699345703125,-9.551337890625001,1.025068359375,0.350140056022409,-0.42016806722689076,-0.2801120448179272,IMU0,-0.275
0.51732421875,-10.0782421875,1.0538085937500001,-1.1904761904761905,-0.2801120448179272,-0.1400560224089636,IMU0,-0.265
0.5748046875,-10.566826171875,0.7664062500000001,0.5602240896358543,-2.5210084033613445,-0.2801120448179272,IMU0,-0.255
0.5748046875,-10.921289062500001,1.3412109375,-0.0700280112044818,-1.1904761904761905,-0.21008403361344538,IMU0,-0.245
0.6227050781250001,-12.128378906250001,0.9771679687500001,0.4901960784313726,-0.350140056022409,-0.2801120448179272,IMU0,-0.235
0.5843847656250001,-13.277988281250002,0.5748046875,0.0,-0.7703081232492998,-0.1400560224089636,IMU0,-0.225
0.7855664062500001,-14.025234375,1.7339941406250001,-0.2801120448179272,-1.8907563025210086,-0.2801120448179272,IMU0,-0.215
0.775986328125,-14.111455078125001,0.871787109375,0.21008403361344538,-1.050420168067227,-0.2801120448179272,IMU0,-0.205
0.59396484375,-14.2168359375,0.9388476562500001,1.4705882352941178,-0.9103641456582633,-0.21008403361344538,IMU0,-0.195
0.5460644531250001,-14.50423828125,1.3699511718750002,1.1904761904761905,-1.1204481792717087,-0.2801120448179272,IMU0,-0.185
0.890947265625,-15.04072265625,0.9675878906250001,-0.1400560224089636,-0.8403361344537815,-0.21008403361344538,IMU0,-0.175
0.5077441406250001,-15.69216796875,1.159189453125,-0.4901960784313726,0.350140056022409,-0.0700280112044818,IMU0,-0.165
0.6514453125,-16.726816406250002,1.3412109375,0.1400560224089636,-0.8403361344537815,-0.1400560224089636,IMU0,-0.155
0.7472460937500001,-18.68115234375,0.910107421875,-1.1204481792717087,-2.2408963585434174,-0.2801120448179272,IMU0,-0.145
0.890947265625,-21.47853515625,1.005908203125,-0.1400560224089636,0.7703081232492998,-0.1400560224089636,IMU0,-0.135
1.101708984375,-26.651777343750002,1.51365234375,-1.050420168067227,3.5014005602240896,-0.21008403361344538,IMU0,-0.125
0.44068359375000005,-35.542089843750006,1.465751953125,1.8207282913165266,-2.2408963585434174,-0.1400560224089636,IMU0,-0.115
0.5460644531250001,-43.28279296875,1.07296875,0.9103641456582633,-4.201680672268908,-0.2801120448179272,IMU0,-0.105
1.235830078125,-51.48333984375,1.389111328125,-0.0700280112044818,-2.5910364145658265,0.0700280112044818,IMU0,-0.095
0.795146484375,-56.417080078125004,1.39869140625,-0.2801120448179272,-3.2913165266106446,0.0700280112044818,IMU0,-0.085
1.063388671875,-59.66472656250001,0.9580078125000001,1.4705882352941178,-4.551820728291316,0.0,IMU0,-0.075
1.302890625,-62.433369140625004,1.0346484375,0.2801120448179272,-0.9803921568627452,0.2801120448179272,IMU0,-0.065
0.51732421875,-65.019990234375,0.910107421875,-1.6106442577030813,1.3305322128851542,0.5602240896358543,IMU0,-0.055
1.235830078125,-67.0988671875,0.9196875000000001,-0.6302521008403361,-0.4901960784313726,0.350140056022409,IMU0,-0.045
0.43110351562500004,-69.216064453125,0.15328125,-0.1400560224089636,-2.170868347338936,0.2801120448179272,IMU0,-0.035
0.19160156250000002,-71.74520507812501,0.46942382812500005,0.700280112044818,-4.761904761904762,-0.0700280112044818,IMU0,-0.025
0.680185546875,-74.772509765625,0.8430468750000001,0.0700280112044818,-7.563025210084034,-0.0700280112044818,IMU0,-0.015
0.45984375000000005,-77.723173828125,0.0,1.050420168067227,-12.88515406162465,-0.1400560224089636,IMU0,-0.005
1.0154882812500001,-79.88827148437501,0.6227050781250001,0.4901960784313726,-15.756302521008404,-0.350140056022409,IMU0,0.005
0.19160156250000002,-81.2390625,-0.01916015625,0.5602240896358543,-15.056022408963585,-0.350140056022409,IMU0,0.015
0.3065625,-82.35035156250001,-0.5843847656250001,-0.4901960784313726,-8.753501400560225,-0.9103641456582633,IMU0,0.025
1.1304492187500002,-83.11675781250001,0.12454101562500001,-0.21008403361344538,-1.8907563025210086,-0.0700280112044818,IMU0,0.035
0.7472460937500001,-83.55744140625,0.67060546875,0.6302521008403361,3.011204481792717,0.21008403361344538,IMU0,0.045
1.389111328125,-84.659150390625,1.120869140625,0.0,3.5714285714285716,0.2801120448179272,IMU0,0.055
1.0538085937500001,-85.43513671875,1.753154296875,0.700280112044818,1.1204481792717087,0.21008403361344538,IMU0,0.065
-0.162861328125,-86.95836914062501,0.5269042968750001,0.700280112044818,-4.201680672268908,0.1400560224089636,IMU0,0.075
0.10538085937500001,-87.839736328125,0.8813671875000001,1.3305322128851542,-5.112044817927171,0.350140056022409,IMU0,0.085
0.354462890625,-87.360732421875,0.2682421875,0.21008403361344538,-2.100840336134454,1.050420168067227,IMU0,0.095
0.37362304687500003,-88.586982421875,-1.4561718750000001,-2.450980392156863,5.8123249299719895,1.050420168067227,IMU0,0.105
3.8703515625000002,-88.20377929687501,5.99712890625,-1.6106442577030813,7.773109243697479,-0.21008403361344538,IMU0,0.115
0.43110351562500004,-87.27451171875,1.120869140625,-0.9103641456582633,-11.554621848739496,-1.8907563025210086,IMU0,0.125
-5.968388671875,-90.35929687500001,-11.304492187500001,-2.2408963585434174,-3.5014005602240896,-1.5406162464985995,IMU0,0.135
4.914580078125001,-94.39250976562501,6.830595703125001,3.5714285714285716,24.859943977591037,-5.882352941176471,IMU0,0.145
1.62861328125,-94.87151367187501,5.182822265625,0.4901960784313726,32.142857142857146,-2.9411764705882355,IMU0,0.155
-0.354462890625,-96.64382812500001,-3.573369140625,2.5910364145658265,26.5406162464986,-3.5714285714285716,IMU0,0.165
0.296982421875,-96.85458984375,-2.519560546875,1.6106442577030813,19.11764705882353,-4.341736694677872,IMU0,0.175
1.427431640625,-98.25328125,4.435576171875001,3.2913165266106446,14.42577030812325,-5.322128851540617,IMU0,0.185
-2.232158203125,-97.716796875,1.6860937500000002,3.9215686274509807,26.12044817927171,-4.761904761904762,IMU0,0.195
-1.868115234375,-99.46037109375001,-2.9123437500000002,4.341736694677872,65.54621848739497,-3.151260504201681,IMU0,0.205
2.0980371093750003,-100.29383789062501,0.718505859375,4.761904761904762,69.11764705882354,-3.2913165266106446,IMU0,0.215
0.63228515625,-101.232685546875,0.9675878906250001,4.411764705882353,61.5546218487395,-3.361344537815126,IMU0,0.225
-1.0346484375,-101.769169921875,-2.059716796875,3.081232492997199,60.714285714285715,-3.081232492997199,IMU0,0.235
0.9388476562500001,-102.4301953125,-0.45984375000000005,2.5210084033613445,59.59383753501401,-3.2913165266106446,IMU0,0.245
0.775986328125,-102.93793945312501,0.40236328125000004,1.680672268907563,58.61344537815126,-3.2212885154061626,IMU0,0.255
-0.6227050781250001,-103.47442382812501,-1.62861328125,0.700280112044818,57.913165266106446,-3.081232492997199,IMU0,0.265
0.55564453125,-104.07796875000001,-0.63228515625,-0.0700280112044818,56.86274509803922,-3.2212885154061626,IMU0,0.275
0.680185546875,-104.68151367187501,0.162861328125,-0.700280112044818,55.88235294117647,-3.2212885154061626,IMU0,0.285
-0.42152343750000004,-105.198837890625,-1.2837304687500002,-1.5406162464985995,55.392156862745104,-3.081232492997199,IMU0,0.295
0.5460644531250001,-105.63952148437501,-0.737666015625,-2.73109243697479,54.761904761904766,-3.2212885154061626,IMU0,0.305
0.5652246093750001,-106.12810546875001,-0.277822265625,-3.641456582633053,53.641456582633054,-3.2913165266106446,IMU0,0.315
-0.24908203125000003,-106.59752929687501,-1.1687695312500002,-4.901960784313726,52.66106442577031,-3.361344537815126,IMU0,0.325
0.613125,-107.038212890625,-0.871787109375,-6.162464985994398,51.33053221288515,-3.641456582633053,IMU0,0.335
0.36404296875000003,-107.62259765625001,-0.5077441406250001,-7.703081232492997,49.92997198879552,-3.781512605042017,IMU0,0.345
-0.0383203125,-107.986640625,-0.9388476562500001,-8.753501400560225,48.879551820728295,-3.9215686274509807,IMU0,0.355
0.6610253906250001,-108.20698242187501,-0.9580078125000001,-10.084033613445378,47.54901960784314,-4.271708683473389,IMU0,0.365
0.32572265625,-108.54228515625,-0.6514453125,-11.064425770308123,45.79831932773109,-4.551820728291316,IMU0,0.375
0.23950195312500003,-108.99254882812501,-1.025068359375,-12.46498599439776,44.6078431372549,-4.901960784313726,IMU0,0.385
0.3448828125,-109.61525390625,-0.67060546875,-14.075630252100842,43.13725490196079,-5.182072829131653,IMU0,0.395
0.258662109375,-110.05593750000001,-0.9580078125000001,-16.666666666666668,39.845938375350144,-5.8123249299719895,IMU0,0.405
0.20118164062500002,-110.29543945312501,-0.8047265625000001,-17.92717086834734,37.95518207282913,-6.0924369747899165,IMU0,0.415
0.076640625,-110.448720703125,-0.335302734375,-19.257703081232496,36.484593837535016,-6.372549019607844,IMU0,0.425
0.18202148437500001,-110.7073828125,-0.8430468750000001,-20.72829131652661,35.294117647058826,-6.652661064425771,IMU0,0.435
0.067060546875,-111.09058593750001,-0.680185546875,-21.9187675070028,33.61344537815126,-6.862745098039216,IMU0,0.445
0.009580078125,-111.41630859375,-0.5269042968750001,-24.159663865546218,32.49299719887955,-7.142857142857143,IMU0,0.455
0.3065625,-111.598330078125,-0.7855664062500001,-25.0,30.3921568627451,-7.492997198879552,IMU0,0.465
0.0,-111.95279296875,-0.689765625,-26.750700280112046,29.131652661064425,-7.773109243697479,IMU0,0.475
-0.086220703125,-112.192294921875,-0.5269042968750001,-28.151260504201684,27.66106442577031,-8.053221288515406,IMU0,0.485
0.20118164062500002,-112.47011718750001,-0.5269042968750001,-30.182072829131656,26.820728291316527,-8.263305322128852,IMU0,0.495
-0.0383203125,-112.59465820312501,-0.5843847656250001,-31.722689075630253,25.70028011204482,-8.473389355742297,IMU0,0.505
-0.18202148437500001,-112.7766796875,-0.6035449218750001,-33.54341736694678,24.649859943977592,-8.823529411764707,IMU0,0.515
0.19160156250000002,-112.901220703125,-0.42152343750000004,-34.80392156862745,23.249299719887958,-9.243697478991598,IMU0,0.525
-0.258662109375,-113.21736328125,-0.17244140625,-36.41456582633053,22.198879551820728,-9.663865546218489,IMU0,0.535
-0.44068359375000005,-113.58140625,-0.32572265625,-37.81512605042017,21.9187675070028,-10.154061624649861,IMU0,0.545
-0.143701171875,-113.83048828125001,0.5077441406250001,-39.075630252100844,22.689075630252102,-10.504201680672269,IMU0,0.555
-1.2837304687500002,-113.94544921875001,1.044228515625,-40.33613445378151,23.80952380952381,-10.434173669467787,IMU0,0.565
-1.312470703125,-113.820908203125,0.18202148437500001,-41.45658263305322,25.07002801120448,-10.154061624649861,IMU0,0.575
-0.7664062500000001,-113.86880859375,0.5077441406250001,-42.64705882352941,27.030812324929972,-10.084033613445378,IMU0,0.585
-1.3412109375,-114.20411132812501,1.120869140625,-44.04761904761905,29.551820728291318,-9.803921568627452,IMU0,0.595
-1.2837304687500002,-114.01250976562501,0.67060546875,-44.81792717086835,32.28291316526611,-9.663865546218489,IMU0,0.605
-0.9867480468750001,-113.86880859375,0.852626953125,-45.728291316526615,35.22408963585434,-9.593837535014005,IMU0,0.615
-1.427431640625,-113.79216796875001,1.504072265625,-46.70868347338936,37.95518207282913,-9.593837535014005,IMU0,0.625
-1.62861328125,-113.84006835937501,0.8430468750000001,-47.19887955182073,40.33613445378151,-9.593837535014005,IMU0,0.635
-1.3412109375,-113.84964843750001,1.22625,-47.96918767507003,42.08683473389356,-9.73389355742297,IMU0,0.645
-1.82021484375,-113.67720703125,1.4944921875000001,-48.879551820728295,43.8375350140056,-9.803921568627452,IMU0,0.655
-2.3471191406250003,-113.380224609375,1.0154882812500001,-49.57983193277311,45.51820728291317,-10.084033613445378,IMU0,0.665
-1.59029296875,-113.3898046875,2.232158203125,-50.280112044817926,48.529411764705884,-10.364145658263306,IMU0,0.675
-1.0921289062500001,-113.21736328125,2.404599609375,-50.56022408963586,51.05042016806723,-10.714285714285715,IMU0,0.685
-2.05013671875,-112.977861328125,2.0213964843750003,-50.98039215686275,50.56022408963586,-10.854341736694678,IMU0,0.695
-2.8165429687500003,-113.21736328125,2.35669921875,-51.47058823529412,51.260504201680675,-10.92436974789916,IMU0,0.705
-2.040556640625,-112.91080078125,2.4908203125000004,-51.75070028011205,55.04201680672269,-10.784313725490197,IMU0,0.715
-2.47166015625,-112.81500000000001,2.7207421875,-52.17086834733894,60.7843137254902,-10.644257703081234,IMU0,0.725
-3.35302734375,-112.70003906250001,2.2513183593750004,-52.66106442577031,65.12605042016807,-10.504201680672269,IMU0,0.735
-1.829794921875,-112.52759765625001,3.420087890625,-52.52100840336135,68.90756302521008,-10.644257703081234,IMU0,0.745
-3.8511914062500003,-112.364736328125,2.921923828125,-53.29131652661064,69.46778711484595,-10.294117647058824,IMU0,0.755
-3.8416113281250004,-112.201875,3.0560449218750003,-53.71148459383754,69.39775910364146,-10.014005602240896,IMU0,0.765
-2.7303222656250004,-111.99111328125001,4.196074218750001,-54.061624649859944,68.83753501400561,-9.803921568627452,IMU0,0.775
-4.75171875,-111.97195312500001,4.129013671875001,-53.92156862745098,66.24649859943978,-9.243697478991598,IMU0,0.785
-4.378095703125,-111.042685546875,4.646337890625,-53.641456582633054,64.6358543417367,-8.543417366946779,IMU0,0.795
-4.00447265625,-110.88940429687501,4.96248046875,-53.57142857142858,64.35574229691878,-8.123249299719888,IMU0,0.805
-4.7804589843750005,-111.20554687500001,4.981640625000001,-52.73109243697479,63.72549019607843,-7.633053221288516,IMU0,0.815
-4.11943359375,-111.2438671875,5.470224609375,-52.3109243697479,61.34453781512605,-7.212885154061625,IMU0,0.825
-5.1061816406250005,-111.052265625,5.8917480468750005,-51.5406162464986,58.753501400560225,-6.862745098039216,IMU0,0.835
-5.2115625,-110.946884765625,5.7384667968750005,-51.05042016806723,58.333333333333336,-6.442577030812325,IMU0,0.845
-5.307363281250001,-111.08100585937501,6.284531250000001,-50.21008403361345,58.82352941176471,-5.9523809523809526,IMU0,0.855
-6.025869140625001,-110.97562500000001,7.050937500000001,-49.57983193277311,57.28291316526611,-5.2521008403361344,IMU0,0.865
-5.431904296875,-110.90856445312501,7.127578125,-48.319327731092436,59.2436974789916,-4.69187675070028,IMU0,0.875
-5.968388671875,-110.60200195312501,6.878496093750001,-47.128851540616246,62.81512605042017,-4.201680672268908,IMU0,0.885
-6.6964746093750005,-110.391240234375,7.060517578125,-46.148459383753504,67.43697478991596,-3.781512605042017,IMU0,0.895
-5.99712890625,-110.24753906250001,7.702382812500001,-44.537815126050425,72.82913165266106,-3.361344537815126,IMU0,0.905
-6.552773437500001,-110.06551757812501,7.8939843750000005,-43.34733893557423,81.44257703081233,-2.8711484593837535,IMU0,0.915
-7.30001953125,-110.19963867187501,7.529941406250001,-42.016806722689076,92.99719887955183,-2.380952380952381,IMU0,0.925
-7.137158203125001,-110.142158203125,7.9802050781250005,-40.68627450980392,101.47058823529412,-2.030812324929972,IMU0,0.935
-7.558681640625,-109.72063476562501,8.631650390625001,-38.79551820728292,112.25490196078432,-1.8907563025210086,IMU0,0.945
-8.171806640625,-109.58651367187501,8.210126953125,-36.904761904761905,125.63025210084034,-1.8207282913165266,IMU0,0.955
-8.555009765625,-109.51945312500001,8.478369140625,-35.0140056022409,142.50700280112045,-2.030812324929972,IMU0,0.965
-8.784931640625,-109.27037109375,8.8519921875,-33.26330532212885,161.27450980392157,-2.170868347338936,IMU0,0.975
-10.030341796875001,-108.92548828125001,8.660390625,-31.372549019607845,180.812324929972,-2.3109243697478994,IMU0,0.985
-9.992021484375,-110.12299804687501,9.436376953125,-28.011204481792717,202.3109243697479,-2.5910364145658265,IMU0,0.995
-11.611054687500001,-110.142158203125,8.689130859375,-26.050420168067227,226.1204481792717,-2.5210084033613445,IMU0,1.005
-11.639794921875001,-109.375751953125,8.784931640625,-24.789915966386555,252.94117647058826,-2.73109243697479,IMU0,1.015
-12.434941406250001,-108.63808593750001,8.746611328125,-22.478991596638657,276.7507002801121,-2.6610644257703084,IMU0,1.025
-12.885205078125,-108.072861328125,8.83283203125,-19.677871148459385,301.1904761904762,-2.5910364145658265,IMU0,1.035
-13.622871093750001,-107.78545898437501,7.788603515625001,-17.43697478991597,323.5294117647059,-2.3109243697478994,IMU0,1.045
-13.536650390625,-107.689658203125,8.047265625,-15.476190476190476,339.91596638655466,-1.5406162464985995,IMU0,1.055
-14.025234375,-107.49805664062501,7.204218750000001,-14.145658263305323,346.07843137254906,-0.5602240896358543,IMU0,1.065
-14.312636718750001,-107.32561523437501,6.255791015625,-13.165266106442578,345.23809523809524,0.6302521008403361,IMU0,1.075
-14.034814453125001,-107.32561523437501,6.092929687500001,-12.88515406162465,338.1652661064426,1.7507002801120448,IMU0,1.085
-13.833632812500001,-107.296875,5.700146484375001,-12.955182072829132,324.3697478991597,3.081232492997199,IMU0,1.095
-14.140195312500001,-107.114853515625,4.090693359375,-14.775910364145659,306.0924369747899,4.201680672268908,IMU0,1.105
-14.475498046875002,-106.95199218750001,3.8703515625000002,-15.616246498599441,286.9047619047619,5.46218487394958,IMU0,1.115
-14.839541015625,-106.616689453125,2.8069628906250004,-17.43697478991597,268.76750700280115,6.512605042016807,IMU0,1.125
-14.015654296875,-106.64542968750001,1.85853515625,-19.39775910364146,253.99159663865547,7.563025210084034,IMU0,1.135
-14.916181640625002,-106.60710937500001,2.16509765625,-21.988795518207283,241.5966386554622,8.893557422969188,IMU0,1.145
-14.647939453125002,-106.40592773437501,0.613125,-24.859943977591037,237.46498599439778,10.084033613445378,IMU0,1.155
-14.81080078125,-106.30054687500001,-0.41194335937500004,-28.291316526610647,238.8655462184874,10.994397759103641,IMU0,1.165
-14.791640625000001,-106.29096679687501,1.101708984375,-31.302521008403364,240.406162464986,11.624649859943979,IMU0,1.175
-14.762900390625001,-106.070625,0.162861328125,-35.22408963585434,243.76750700280112,11.904761904761905,IMU0,1.185
-14.226416015625,-105.78322265625,-0.6035449218750001,-39.14565826330532,253.71148459383755,12.254901960784315,IMU0,1.195
-15.155683593750002,-105.86944335937501,0.45984375000000005,-42.7170868347339,264.07563025210084,12.114845938375352,IMU0,1.205
-14.274316406250001,-105.831123046875,-0.43110351562500004,-46.70868347338936,274.15966386554624,11.834733893557424,IMU0,1.215
-14.188095703125,-105.831123046875,-0.43110351562500004,-50.490196078431374,279.9719887955182,10.784313725490197,IMU0,1.225
-14.264736328125,-105.620361328125,0.63228515625,-53.43137254901961,279.13165266106444,9.38375350140056,IMU0,1.235
-14.2934765625,-105.52456054687501,-0.9005273437500001,-57.28291316526611,280.18207282913164,8.123249299719888,IMU0,1.245
-14.226416015625,-105.40959960937501,-1.3412109375,-60.504201680672274,281.30252100840335,6.932773109243698,IMU0,1.255
-14.063554687500002,-105.59162109375,0.0383203125,-64.77591036414566,280.812324929972,5.322128851540617,IMU0,1.265
-13.632451171875001,-105.1892578125,-0.45026367187500005,-68.34733893557423,275.7002801120448,3.641456582633053,IMU0,1.275
-14.130615234375002,-104.8826953125,-0.37362304687500003,-71.42857142857143,269.18767507002804,1.8207282913165266,IMU0,1.285
-14.331796875,-104.719833984375,-0.22034179687500002,-74.50980392156863,265.1260504201681,0.1400560224089636,IMU0,1.295
-14.379697265625001,-104.56655273437501,0.17244140625,-78.0812324929972,263.9355742296919,-1.4705882352941178,IMU0,1.305
-13.929433593750002,-104.6527734375,0.59396484375,-79.55182072829132,258.68347338935575,-3.5714285714285716,IMU0,1.315
-14.350957031250001,-104.461171875,1.197509765625,-81.65266106442577,254.90196078431373,-5.6722689075630255,IMU0,1.325
-15.586787109375,-104.30789062500001,0.335302734375,-83.54341736694678,250.14005602240897,-7.773109243697479,IMU0,1.335
-15.366445312500002,-104.38453125000001,1.8393750000000002,-84.94397759103641,247.89915966386556,-9.663865546218489,IMU0,1.345
-15.69216796875,-104.17376953125,1.4178515625,-85.92436974789916,247.7591036414566,-11.414565826330533,IMU0,1.355
-16.123271484375,-103.9246875,2.002236328125,-87.60504201680672,247.82913165266106,-13.445378151260504,IMU0,1.365
-16.947158203125,-103.857626953125,3.3338671875,-88.8655462184874,246.56862745098042,-15.266106442577032,IMU0,1.375
-18.39375,-103.627705078125,1.9639160156250002,-89.6358543417367,251.33053221288517,-16.876750700280112,IMU0,1.385
-18.470390625,-103.66602539062501,3.2859667968750004,-89.77591036414566,261.7647058823529,-18.557422969187677,IMU0,1.395
-19.303857421875,-103.388203125,3.8320312500000004,-89.49579831932773,271.5686274509804,-20.098039215686274,IMU0,1.405
-20.549267578125,-103.12954101562501,2.9794042968750003,-89.6358543417367,279.4117647058824,-21.84873949579832,IMU0,1.415
-22.3790625,-102.90919921875,3.8320312500000004,-89.49579831932773,286.34453781512605,-23.73949579831933,IMU0,1.425
-22.982607421875002,-103.01458007812501,4.46431640625,-87.88515406162465,307.56302521008405,-26.680672268907564,IMU0,1.435
-24.256757812500002,-102.85171875,4.2535546875,-87.25490196078432,310.92436974789916,-28.43137254901961,IMU0,1.445
-25.521328125,-102.76549804687501,4.033212890625,-86.06442577030813,311.9047619047619,-30.11204481792717,IMU0,1.455
-26.220673828125,-102.478095703125,5.470224609375,-85.15406162464987,308.61344537815125,-31.51260504201681,IMU0,1.465
-28.002568359375,-102.41103515625001,4.090693359375,-84.80392156862746,303.2212885154062,-32.28291316526611,IMU0,1.475
-29.085117187500003,-102.39187500000001,3.8511914062500003,-83.33333333333334,295.86834733893556,-33.403361344537814,IMU0,1.485
-30.091025390625003,-102.803818359375,4.186494140625,-84.2436974789916,283.33333333333337,-34.38375350140056,IMU0,1.495
-31.05861328125,-102.71759765625,4.5601171875,-83.8935574229692,266.9467787114846,-35.294117647058826,IMU0,1.505
-32.1890625,-102.803818359375,4.5984375,-81.65266106442577,245.0980392156863,-35.7843137254902,IMU0,1.515
-33.444052734375,-103.05290039062501,4.4834765625,-81.23249299719889,225.4201680672269,-35.64425770308124,IMU0,1.525
-33.89431640625,-102.56431640625,5.441484375,-82.21288515406162,206.30252100840337,-35.294117647058826,IMU0,1.535
-35.704951171875,-102.25775390625,4.57927734375,-81.9327731092437,186.9747899159664,-34.523809523809526,IMU0,1.545
-36.6725390625,-102.05657226562501,6.389912109375,-81.72268907563026,167.57703081232495,-33.19327731092437,IMU0,1.555
-38.550234375,-101.63504882812501,5.26904296875,-82.07282913165267,155.0420168067227,-31.51260504201681,IMU0,1.565
-40.485410156250005,-101.548828125,6.7826953125000005,-81.37254901960785,144.2577030812325,-29.69187675070028,IMU0,1.575
-42.228984375,-101.232685546875,7.75986328125,-81.79271708683474,146.9887955182073,-27.24089635854342,IMU0,1.585
-43.771376953125,-101.37638671875001,9.484277343750001,-81.51260504201682,154.62184873949582,-26.47058823529412,IMU0,1.595
-45.6778125,-101.290166015625,10.09740234375,-83.26330532212886,174.7198879551821,-24.92997198879552,IMU0,1.605
-45.428730468750004,-101.22310546875,9.733359375000001,-83.26330532212886,197.2689075630252,-22.61904761904762,IMU0,1.615
-46.923222656250005,-101.347646484375,10.174042968750001,-82.28291316526611,209.6638655462185,-21.288515406162468,IMU0,1.625
-48.32191406250001,-101.1273046875,10.490185546875,-81.86274509803921,236.624649859944,-19.537815126050422,IMU0,1.635
-50.190029296875004,-101.06982421875,10.09740234375,-82.14285714285715,266.38655462184875,-17.50700280112045,IMU0,1.645
-50.458271484375004,-100.97402343750001,9.474697265625,-82.14285714285715,303.01120448179273,-15.826330532212886,IMU0,1.655
-51.377958984375006,-100.83990234375001,8.056845703125001,-82.56302521008404,322.05882352941177,-14.985994397759104,IMU0,1.665
-52.498828125,-100.91654296875001,9.06275390625,-82.77310924369748,334.4537815126051,-15.056022408963585,IMU0,1.675
-52.585048828125004,-100.66746093750001,6.552773437500001,-84.87394957983193,359.73389355742296,-13.725490196078432,IMU0,1.685
-52.623369140625,-100.76326171875,5.3456835937500005,-86.90476190476191,370.7983193277311,-13.58543417366947,IMU0,1.695
-52.0006640625,-100.887802734375,4.550537109375,-88.93557422969188,359.593837535014,-14.705882352941178,IMU0,1.705
-50.122968750000005,-100.55250000000001,3.9086718750000005,-90.61624649859944,327.7310924369748,-15.826330532212886,IMU0,1.715
-51.387539062500004,-100.29383789062501,2.634521484375,-94.46778711484595,264.0056022408964,-17.99719887955182,IMU0,1.725
-49.50984375,-99.987275390625,3.23806640625,-98.109243697479,195.51820728291318,-20.098039215686274,IMU0,1.735
-52.144365234375,-99.69987304687501,5.642666015625,-100.98039215686275,118.4873949579832,-20.868347338935575,IMU0,1.745
-50.352890625,-99.47953125000001,7.137158203125001,-103.85154061624651,60.36414565826331,-21.008403361344538,IMU0,1.755
-56.177578125000004,-98.952626953125,7.6257421875,-108.96358543417368,25.28011204481793,-18.977591036414566,IMU0,1.765
-57.394248046875006,-98.837666015625,9.388476562500001,-110.36414565826331,38.93557422969188,-16.526610644257705,IMU0,1.775
-61.226279296875006,-98.971787109375,14.86828125,-112.04481792717087,89.70588235294117,-12.605042016806724,IMU0,1.785
-63.52549804687501,-98.76102539062501,16.908837890625,-114.42577030812325,170.72829131652662,-8.823529411764707,IMU0,1.795
-64.62720703125001,-98.780185546875,14.647939453125002,-111.5546218487395,270.5182072829132,-6.442577030812325,IMU0,1.805
-66.84020507812501,-99.010107421875,15.663427734375,-111.1344537815126,377.8711484593838,-5.392156862745098,IMU0,1.815
-67.817373046875,-98.73228515625,14.542558593750002,-112.53501400560225,481.44257703081234,-6.722689075630252,IMU0,1.825
-69.580107421875,-98.76102539062501,10.97876953125,-108.8935574229692,563.8655462184875,-10.294117647058824,IMU0,1.835
-68.57419921875001,-98.51194335937501,5.8246875000000005,-108.8935574229692,627.9411764705883,-15.546218487394958,IMU0,1.845
-68.27721679687501,-98.32992187500001,6.351591796875001,-106.72268907563026,666.5266106442577,-21.77871148459384,IMU0,1.855
-65.73849609375,-98.21496093750001,-4.205654296875,-109.52380952380953,655.1120448179272,-28.641456582633054,IMU0,1.865
-68.1718359375,-98.128740234375,-4.684658203125,-107.77310924369749,583.0532212885155,-37.18487394957983,IMU0,1.875
-70.384833984375,-97.7551171875,-6.102509765625,-114.2156862745098,519.8879551820728,-43.69747899159664,IMU0,1.885
-74.791669921875,-97.78385742187501,-9.81,-117.22689075630252,451.7507002801121,-48.459383753501406,IMU0,1.895
-78.07763671875,-97.50603515625001,-11.888876953125001,-122.96918767507003,417.08683473389357,-49.719887955182074,IMU0,1.905
-78.432099609375,-97.39107421875,-10.969189453125,-128.4313725490196,397.4089635854342,-51.19047619047619,IMU0,1.915
-75.328154296875,-97.400654296875,-15.605947265625002,-135.92436974789916,379.20168067226894,-51.75070028011205,IMU0,1.925
-79.696669921875,-97.26653320312501,-10.202783203125001,-142.08683473389357,345.1680672268908,-54.13165266106443,IMU0,1.935
-82.86767578125,-96.53844726562501,-9.67587890625,-153.4313725490196,331.9327731092437,-55.182072829131656,IMU0,1.945
-77.54115234375,-96.54802734375001,-10.28900390625,-160.0140056022409,316.8067226890756,-56.65266106442577,IMU0,1.955
-78.240498046875,-96.11692382812501,-15.500566406250002,-170.7983193277311,266.6666666666667,-58.543417366946784,IMU0,1.965
-81.468984375,-95.9540625,-4.435576171875001,-173.80952380952382,230.95238095238096,-60.15406162464986,IMU0,1.975
-78.911103515625,-95.09185546875001,-7.2616992187500005,-184.03361344537817,244.39775910364148,-57.913165266106446,IMU0,1.985
-78.4416796875,-94.88109375,-6.428232421875,-188.0952380952381,249.15966386554624,-57.42296918767507,IMU0,1.995
-80.19483398437501,-94.67033203125001,2.375859375,-189.07563025210084,263.2352941176471,-57.49299719887956,IMU0,2.005
-79.8212109375,-94.19132812500001,-2.059716796875,-194.6778711484594,280.6022408963586,-58.753501400560225,IMU0,2.015
-80.95166015625,-94.47873046875,-2.366279296875,-197.40896358543418,280.18207282913164,-62.74509803921569,IMU0,2.025
-81.670166015625,-93.59736328125001,6.99345703125,-194.2577030812325,244.60784313725492,-67.85714285714286,IMU0,2.035
-85.914140625,-93.48240234375001,7.577841796875001,-194.46778711484595,185.92436974789916,-71.1484593837535,IMU0,2.045
-91.02032226562501,-93.6931640625,5.853427734375001,-192.57703081232495,128.99159663865547,-72.75910364145659,IMU0,2.055
-97.285693359375,-93.271640625,12.952265625,-186.69467787114846,60.99439775910364,-73.24929971988796,IMU0,2.065
-101.45302734375001,-93.18541992187501,15.883769531250001,-180.46218487394958,22.338935574229694,-71.21848739495799,IMU0,2.075
-112.2401953125,-92.76389648437501,14.916181640625002,-173.4593837535014,55.252100840336134,-68.27731092436976,IMU0,2.085
-120.57486328125,-92.9267578125,20.108583984375002,-160.43417366946778,185.22408963585434,-70.51820728291317,IMU0,2.095
-127.65454101562501,-92.52439453125001,12.93310546875,-144.53781512605042,400.35014005602244,-77.10084033613445,IMU0,2.105
-125.546923828125,-92.86927734375,5.5564453125,-122.3389355742297,611.5546218487395,-88.72549019607844,IMU0,2.115
-134.53303710937502,-93.82728515625,24.419619140625002,-110.15406162464987,699.3697478991597,-102.17086834733894,IMU0,2.125
-148.941474609375,-93.032138671875,30.043125000000003,-111.69467787114847,629.6918767507003,-118.9075630252101,IMU0,2.135
-155.35054687500002,-94.344609375,33.252451171875,-117.57703081232494,487.2549019607843,-130.74229691876752,IMU0,2.145
-159.73822265625,-92.60103515625,15.46224609375,-145.3781512605042,354.2717086834734,-144.11764705882354,IMU0,2.155
-166.693359375,-91.74840820312501,17.771044921875003,-178.0812324929972,69.18767507002802,-161.76470588235296,IMU0,2.165
-167.54598632812503,-91.901689453125,34.670302734375,-201.68067226890759,-184.80392156862746,-176.47058823529412,IMU0,2.175
-187.472548828125,-90.48383789062501,60.881396484375,-239.63585434173672,-290.406162464986,-179.62184873949582,IMU0,2.185
-191.92728515625,-88.08881835937501,57.461308593750005,-275.7002801120448,-170.58823529411765,-174.78991596638656,IMU0,2.195
-194.28398437500002,-88.826484375,43.1869921875,-279.90196078431376,180.95238095238096,-172.82913165266106,IMU0,2.205
-233.591044921875,-90.08147460937501,29.027636718750003,-255.32212885154064,539.2156862745098,-189.14565826330534,IMU0,2.215
-228.21662109375,-86.805087890625,49.3948828125,-246.1484593837535,818.7675070028012,-227.52100840336135,IMU0,2.225
-232.66177734375,-90.052734375,35.206787109375,-210.92436974789916,887.5350140056023,-269.2577030812325,IMU0,2.235
-278.0905078125,-86.16322265625,25.952431640625,-235.0840336134454,741.2464985994399,-318.76750700280115,IMU0,2.245
-288.983056640625,-87.475693359375,16.439414062500003,-184.17366946778714,526.3305322128851,-372.4089635854342,IMU0,2.255
-264.22813476562504,-84.33342773437501,-4.349355468750001,-204.83193277310926,302.94117647058823,-419.11764705882354,IMU0,2.265
-282.20036132812504,-86.39314453125,-14.887441406250002,-222.40896358543418,-12.044817927170868,-455.1820728291317,IMU0,2.275
-245.65236328125002,-82.551533203125,36.7491796875,-247.54901960784315,-353.5714285714286,-475.4901960784314,IMU0,2.285
-183.72673828125002,-83.44248046875,100.03517578125,-271.00840336134456,-624.4397759103641,-462.3249299719888,IMU0,2.295
-240.881484375,-83.643662109375,119.9808984375,-354.76190476190476,-774.0196078431372,-425.4901960784314,IMU0,2.305
-267.78234375,-80.73131835937501,115.38246093750001,-422.7591036414566,-722.4789915966387,-375.0700280112045,IMU0,2.315
-209.95699218750002,-86.268603515625,48.07283203125,-464.4957983193278,-440.6162464985995,-314.14565826330534,IMU0,2.325
-185.86309570312503,-86.211123046875,63.535078125000005,-438.8655462184874,-28.50140056022409,-299.92997198879556,IMU0,2.335
-211.901748046875,-86.28776367187501,64.08114257812501,-314.2857142857143,425.0,-281.2324929971989,IMU0,2.345
-215.82958007812502,-76.08498046875,68.64125976562501,-123.17927170868347,724.1596638655462,-346.9187675070028,IMU0,2.355
-200.02245117187502,-79.45716796875,68.19099609375,-254.90196078431373,665.9663865546219,-358.8235294117647,IMU0,2.365
-181.647861328125,-83.02095703125,26.833798828125,-310.7843137254902,66.5266106442577,-235.71428571428572,IMU0,2.375
-189.01494140625002,-86.83382812500001,22.733525390625,-193.27731092436974,-28.8515406162465,-284.73389355742296,IMU0,2.385
-192.69369140625003,-83.37541992187501,37.91794921875,-214.91596638655463,-132.14285714285714,-297.54901960784315,IMU0,2.395
-159.824443359375,-80.060712890625,35.915712890625,-331.2324929971989,-276.1904761904762,-439.9859943977591,IMU0,2.405
-143.73949218750002,-78.84404296875,49.193701171875006,-365.0560224089636,-726.3305322128851,-379.6218487394958,IMU0,2.415
-128.708349609375,-77.033408203125,99.872314453125,-427.10084033613447,-1110.7843137254902,-288.02521008403363,IMU0,2.425
-127.18511718750001,-70.518955078125,108.896748046875,-473.80952380952385,-1375.280112044818,-175.14005602240897,IMU0,2.435
-103.46484375,-67.587451171875,88.836064453125,-497.2689075630252,-1294.5378151260504,-43.8375350140056,IMU0,2.445
-85.1860546875,-72.0038671875,90.76166015625,-479.5518207282913,-592.0868347338936,173.24929971988797,IMU0,2.455
-76.42986328125001,-70.509375,96.43306640625,-463.09523809523813,-246.91876750700283,226.9607843137255,IMU0,2.465
-92.3136328125,-70.18365234375,89.449189453125,-461.2745098039216,85.29411764705883,258.4033613445378,IMU0,2.475
-99.067587890625,-71.247041015625,74.55216796875,-474.7198879551821,412.2549019607843,262.18487394957987,IMU0,2.485
-100.39921875,-70.72971679687501,68.64125976562501,-504.4817927170869,717.7170868347339,235.50420168067228,IMU0,2.495
-101.884130859375,-71.15124023437501,56.302119140625,-531.9327731092437,894.8879551820729,180.3221288515406,IMU0,2.505
-94.239228515625,-68.602939453125,32.294443359375,-562.0448179271709,762.3949579831933,109.80392156862746,IMU0,2.515
-94.17216796875,-65.50857421875,11.199111328125001,-581.5826330532213,447.05882352941177,61.97478991596639,IMU0,2.525
-99.067587890625,-62.82615234375,5.815107421875,-580.7422969187676,158.61344537815125,40.056022408963585,IMU0,2.535
-97.07493164062501,-59.62640625,-3.247646484375,-583.5434173669468,-41.52661064425771,40.89635854341737,IMU0,2.545
-97.103671875,-55.5261328125,-4.042792968750001,-593.1372549019608,-223.24929971988797,56.51260504201681,IMU0,2.555
-102.93793945312501,-51.665361328125,7.3191796875,-587.5350140056023,-409.0336134453782,86.9747899159664,IMU0,2.565
-109.2512109375,-47.53634765625,24.170537109375,-580.3921568627451,-608.1232492997199,133.54341736694678,IMU0,2.575
-108.04412109375001,-41.951162109375005,39.172939453125004,-559.3837535014006,-835.5042016806723,193.0672268907563,IMU0,2.585
-105.01681640625,-38.598134765625005,69.810029296875,-515.8963585434174,-1073.3193277310925,269.467787114846,IMU0,2.595
-103.25408203125001,-33.846416015625,76.640625,-462.3949579831933,-1210.8543417366948,354.20168067226894,IMU0,2.605
-102.248173828125,-33.185390625000004,65.058310546875,-387.3949579831933,-1131.1624649859943,431.51260504201684,IMU0,2.615
-99.508271484375,-37.5155859375,58.64923828125001,-311.624649859944,-910.8543417366947,491.38655462184875,IMU0,2.625
-73.699541015625,-39.6615234375,83.30835937500001,-242.0168067226891,-679.6918767507003,519.327731092437,IMU0,2.635
-59.521025390625006,-39.383701171875,84.28552734375,-187.67507002801122,-457.98319327731093,538.0952380952381,IMU0,2.645
-51.33005859375,-38.885537109375,79.68708984375,-168.20728291316527,-269.11764705882354,555.5322128851541,IMU0,2.655
-61.15921875,-39.948925781250004,69.8579296875,-154.55182072829132,-130.88235294117646,559.453781512605,IMU0,2.665
-59.022861328125,-41.52005859375,67.15634765625,-151.54061624649862,-22.689075630252102,557.3529411764706,IMU0,2.675
-50.209189453125006,-42.851689453125005,69.273544921875,-159.10364145658264,77.80112044817928,554.4817927170868,IMU0,2.685
-45.35208984375,-42.47806640625,59.022861328125,-176.75070028011206,173.3893557422969,548.9495798319329,IMU0,2.695
-53.66759765625,-43.292373046875,60.4311328125,-200.70028011204482,265.7563025210084,541.8767507002801,IMU0,2.705
-48.264433593750006,-44.020458984375004,55.449492187500006,-232.0028011204482,361.2745098039216,528.781512605042,IMU0,2.715
-53.61969726562501,-44.202480468750004,49.078740234375005,-268.76750700280115,456.8627450980392,510.5742296918768,IMU0,2.725
-52.134785156250004,-44.89224609375,57.48046875000001,-307.703081232493,556.232492997199,483.82352941176475,IMU0,2.735
-57.700810546875005,-44.844345703125,48.436875,-356.2324929971989,670.6582633053222,450.0,IMU0,2.745
-54.692666015625,-45.802353515625,53.389775390625005,-403.5014005602241,779.2717086834734,402.03081232492997,IMU0,2.755
-65.82471679687501,-45.447890625,51.512080078125,-449.15966386554624,915.3361344537816,340.96638655462186,IMU0,2.765
-73.871982421875,-45.706552734375,45.754453125000005,-495.23809523809524,1088.9355742296918,263.515406162465,IMU0,2.775
-74.0731640625,-44.0300390625,53.341875,-527.9411764705883,1297.829131652661,163.37535014005604,IMU0,2.785
-75.845478515625,-39.536982421875,64.58888671875,-547.5490196078432,1515.0560224089636,39.35574229691877,IMU0,2.795
-75.979599609375,-34.210458984375,39.929765625,-531.5126050420168,1663.795518207283,-99.85994397759104,IMU0,2.805
-75.673037109375,-31.125673828125002,3.247646484375,-471.5686274509804,1631.9327731092437,-236.624649859944,IMU0,2.815
-67.7119921875,-29.650341796875,-25.84705078125,-383.61344537815125,1481.372549019608,-346.6386554621849,IMU0,2.825
-60.546093750000004,-26.977500000000003,-26.086552734375,-285.99439775910366,1367.0868347338935,-422.47899159663865,IMU0,2.835
-60.843076171875005,-22.455703125000003,-32.706386718750004,-183.68347338935575,1364.2156862745098,-470.7282913165266,IMU0,2.845
-38.655615234375006,-18.41291015625,-44.54736328125,-89.84593837535014,1433.0532212885155,-496.07843137254906,IMU0,2.855
-24.362138671875,-14.619199218750001,-41.021894531250005,41.10644257703081,1486.0644257703082,-495.93837535014006,IMU0,2.865
-1.22625,-13.565390625000001,-36.595898437500004,183.33333333333334,1463.9355742296918,-470.6582633053221,IMU0,2.875
5.805527343750001,-15.548466796875001,-38.8184765625,286.624649859944,1320.6582633053222,-422.05882352941177,IMU0,2.885
22.110820312500003,-16.391513671875,-42.343945312500004,355.672268907563,1150.4901960784314,-352.3809523809524,IMU0,2.895
40.5045703125,-17.244140625,-36.557578125,405.1820728291317,1028.3613445378153,-286.06442577030816,IMU0,2.905
66.61028320312501,-19.75412109375,-20.127744140625,432.2829131652661,991.8767507002801,-210.57422969187675,IMU0,2.915
66.744404296875,-23.059248046875002,-19.524199218750002,454.27170868347343,994.9579831932773,-133.75350140056022,IMU0,2.925
59.15698242187501,-22.321582031250003,-16.247812500000002,460.7142857142857,1050.140056022409,-45.44817927170869,IMU0,2.935
52.968251953125005,-21.076171875,-3.4392480468750004,462.8851540616247,1144.2577030812326,42.7170868347339,IMU0,2.945
60.929296875000006,-21.124072265625003,31.144833984375,448.5994397759104,1238.4453781512605,132.703081232493,IMU0,2.955
58.76419921875,-24.371718750000003,44.595263671875,407.703081232493,1244.467787114846,225.8403361344538,IMU0,2.965
51.559980468750005,-26.718837890625,51.339638671875,354.90196078431376,1145.4481792717088,296.35854341736695,IMU0,2.975
48.235693359375006,-28.289970703125,50.6211328125,294.11764705882354,1048.6694677871149,349.4397759103642,IMU0,2.985
33.597333984375005,-29.0084765625,56.436240234375006,230.25210084033614,999.4397759103642,389.3557422969188,IMU0,2.995
18.250048828125003,-30.21556640625,56.187158203125,163.30532212885154,976.5406162464986,419.81792717086836,IMU0,3.005
12.080478515625002,-29.6216015625,55.8326953125,95.30812324929973,994.047619047619,439.4257703081233,IMU0,3.015
-6.22705078125,-29.525800781250002,57.633750000000006,22.058823529411764,1070.7282913165266,453.9915966386555,IMU0,3.025
-29.746142578125003,-29.937744140625004,55.612353515625,-59.45378151260505,1203.1512605042017,456.7927170868347,IMU0,3.035
-16.908837890625,-29.956904296875003,55.123769531250005,-146.42857142857144,1297.549019607843,434.0336134453782,IMU0,3.045
-18.317109375,-27.303222656250004,50.611552734375,-223.17927170868347,1256.232492997199,393.8375350140056,IMU0,3.055
-33.242871093750004,-26.4793359375,44.049199218750005,-289.07563025210084,1212.044817927171,347.47899159663865,IMU0,3.065
-43.311533203125,-26.555976562500003,42.449326171875,-339.5658263305322,1204.6218487394958,298.31932773109247,IMU0,3.075
-54.941748046875006,-25.483007812500002,37.30482421875,-378.9915966386555,1261.8347338935575,219.187675070028,IMU0,3.085
-61.379560546875005,-23.940615234375002,37.027001953125,-408.33333333333337,1377.450980392157,129.55182072829132,IMU0,3.095
-56.656582031250004,-20.482207031250002,51.416279296875004,-418.5574229691877,1521.0784313725492,33.61344537815126,IMU0,3.105
-48.638056640625,-17.311201171875002,33.81767578125,-411.2745098039216,1566.5966386554624,-73.38935574229693,IMU0,3.115
-40.590791015625,-14.006074218750001,-0.6418652343750001,-378.4313725490196,1492.2969187675071,-170.8683473389356,IMU0,3.125
-30.627509765625003,-11.505673828125001,-28.337871093750003,-318.2773109243698,1428.5714285714287,-248.38935574229694,IMU0,3.135
-30.723310546875002,-9.474697265625,-27.715166015625,-240.406162464986,1413.3053221288517,-311.5546218487395,IMU0,3.145
-33.58775390625,-7.1754785156250005,-21.718037109375,-151.6106442577031,1482.0028011204483,-352.52100840336135,IMU0,3.155
-15.107783203125,-2.9123437500000002,-18.0488671875,-46.70868347338936,1576.8207282913165,-381.5826330532213,IMU0,3.165
0.354462890625,-1.8106347656250001,-15.73048828125,62.18487394957983,1570.7983193277312,-386.41456582633054,IMU0,3.175
12.1475390625,-0.9867480468750001,-16.180751953125,163.37535014005604,1483.4733893557423,-365.33613445378154,IMU0,3.185
22.235361328125002,-0.12454101562500001,-2.222578125,245.30812324929974,1433.8935574229693,-317.57703081232495,IMU0,3.195
30.790371093750004,-0.11496093750000001,17.119599609375,309.87394957983196,1460.2240896358544,-243.69747899159665,IMU0,3.205
30.627509765625003,-1.9926562500000002,23.729853515625003,360.0140056022409,1556.7927170868347,-155.3921568627451,IMU0,3.215
29.094697265625,-2.864443359375,41.94158203125,385.7142857142857,1628.011204481793,-48.24929971988796,IMU0,3.225
20.309765625,-5.278623046875,49.107480468750005,388.02521008403363,1602.310924369748,61.06442577030813,IMU0,3.235
10.700947265625,-8.6220703125,58.72587890625,363.1652661064426,1566.5966386554624,158.19327731092437,IMU0,3.245
-5.2498828125,-11.563154296875,59.080341796875004,309.3137254901961,1557.422969187675,244.46778711484595,IMU0,3.255
-14.034814453125001,-12.492421875000002,55.16208984375,237.95518207282913,1603.501400560224,320.7282913165266,IMU0,3.265
-18.489550781250003,-14.025234375,51.090556640625,146.07843137254903,1686.6946778711485,379.5518207282913,IMU0,3.275
-21.411474609375002,-13.900693359375001,49.50984375,42.296918767507,1707.282913165266,414.84593837535016,IMU0,3.285
-35.168466796875,-14.877861328125,44.077939453125005,-64.28571428571429,1696.1484593837536,420.0280112044818,IMU0,3.295
-46.386738281250004,-15.797548828125,45.476630859375,-169.88795518207283,1713.795518207283,391.52661064425774,IMU0,3.305
-52.891611328125,-13.804892578125001,33.28119140625,-263.515406162465,1771.0784313725492,327.59103641456585,IMU0,3.315
-55.861435546875,-12.607382812500001,37.831728515625,-330.672268907563,1832.2128851540617,234.38375350140058,IMU0,3.325
-49.481103515625,-9.819580078125,26.766738281250003,-371.9887955182073,1840.1960784313726,120.0280112044818,IMU0,3.335
-55.286630859375,-7.10841796875,14.312636718750001,-377.8011204481793,1761.4845938375352,2.8711484593837535,IMU0,3.345
-59.118662109375,-2.5770410156250003,3.2763867187500004,-348.59943977591035,1716.2464985994397,-104.55182072829132,IMU0,3.355
-57.365507812500006,1.8106347656250001,-6.313271484375001,-285.1540616246499,1722.6190476190477,-200.14005602240897,IMU0,3.365
-46.597500000000004,6.734794921875,-15.759228515625,-193.1372549019608,1754.1316526610644,-280.18207282913164,IMU0,3.375
-31.528037109375003,10.05908203125,-20.223544921875,-81.72268907563026,1734.6638655462186,-332.3529411764706,IMU0,3.385
-22.398222656250002,11.726015625,-29.976064453125,36.694677871148464,1650.6302521008404,-349.7198879551821,IMU0,3.395
-9.120234375,12.981005859375001,-34.727783203125,147.7591036414566,1561.0644257703082,-338.09523809523813,IMU0,3.405
7.702382812500001,14.897021484375001,-29.67908203125,244.7478991596639,1510.8543417366948,-294.9579831932773,IMU0,3.415
19.629580078125002,14.50423828125,-21.986279296875,328.1512605042017,1510.2240896358544,-224.2997198879552,IMU0,3.425
29.27671875,13.191767578125,-5.901328125,388.8655462184874,1529.2717086834734,-129.76190476190476,IMU0,3.435
28.970156250000002,9.072333984375,17.119599609375,417.50700280112045,1527.9411764705883,-19.18767507002801,IMU0,3.445
33.539853515625005,5.604345703125,33.616494140625,408.4033613445378,1500.3501400560224,93.20728291316527,IMU0,3.455
33.309931640625,1.7723144531250001,33.81767578125,373.1792717086835,1472.7591036414567,198.109243697479,IMU0,3.465
24.419619140625002,-0.680185546875,40.849453125000004,237.7450980392157,1487.2549019607843,384.94397759103646,IMU0,3.475
6.437812500000001,-2.232158203125,45.055107421875,136.41456582633054,1534.873949579832,448.249299719888,IMU0,3.485
1.89685546875,-2.366279296875,47.852490234375004,18.557422969187677,1578.5714285714287,483.61344537815125,IMU0,3.495
-18.14466796875,-4.052373046875,53.313134765625,-104.97198879551821,1591.7366946778711,480.672268907563,IMU0,3.505
-31.068193359375,-5.5564453125,49.117060546875,-223.66946778711485,1585.014005602241,442.92717086834733,IMU0,3.515
-41.529638671875006,-23.940615234375002,37.7071875,-318.4873949579832,1590.826330532213,370.5882352941177,IMU0,3.525
-49.222441406250006,-1.9639160156250002,34.622402343750004,-391.03641456582636,1607.282913165266,268.2072829131653,IMU0,3.535
-54.84594726562501,16.324453125,25.253085937500003,-423.10924369747903,1647.5490196078433,146.5686274509804,IMU0,3.545
-51.167197265625006,-0.086220703125,18.700312500000003,-435.7142857142857,1690.6162464985996,18.76750700280112,IMU0,3.555
-42.727148437500006,3.08478515625,10.40396484375,-403.5714285714286,1684.733893557423,-107.28291316526611,IMU0,3.565
-39.307060546875,6.888076171875,-4.4834765625,-340.8263305322129,1639.9159663865546,-216.1764705882353,IMU0,3.575
-32.59142578125,9.455537109375001,-13.191767578125,-251.33053221288517,1598.5294117647059,-300.7002801120448,IMU0,3.585
-30.63708984375,12.846884765625001,-16.650175781250002,-145.09803921568627,1582.422969187675,-357.91316526610643,IMU0,3.595
-18.863173828125003,15.17484375,-17.330361328125,-29.901960784313726,1599.5798319327732,-382.63305322128855,IMU0,3.605
-4.569697265625,16.276552734375002,-16.70765625,88.0952380952381,1618.5574229691877,-376.890756302521,IMU0,3.615
0.143701171875,16.123271484375,-14.140195312500001,198.8795518207283,1598.3193277310925,-336.1344537815126,IMU0,3.625
6.8497558593750005,15.538886718750001,-14.341376953125001,289.4957983193277,1549.3697478991596,-268.2773109243698,IMU0,3.635
17.45490234375,14.283896484375001,-8.574169921875,355.4621848739496,1518.8375350140057,-183.19327731092437,IMU0,3.645
19.67748046875,12.866044921875002,1.312470703125,397.19887955182077,1519.1176470588236,-84.31372549019608,IMU0,3.655
21.037851562500002,10.3848046875,12.607382812500001,409.3137254901961,1553.5714285714287,25.35014005602241,IMU0,3.665
21.296513671875,8.842412109375001,24.08431640625,391.2464985994398,1597.7591036414567,138.8655462184874,IMU0,3.675
20.760029296875,3.8320312500000004,30.359267578125003,342.64705882352945,1602.3809523809525,244.11764705882354,IMU0,3.685
17.598603515625,2.8261230468750003,36.653378906250005,267.3669467787115,1577.871148459384,330.0420168067227,IMU0,3.695
9.934541015625001,-0.890947265625,40.0447265625,175.56022408963585,1567.9271708683475,391.5966386554622,IMU0,3.705
5.700146484375001,-2.404599609375,41.088955078125004,70.37815126050421,1578.9915966386554,427.8711484593838,IMU0,3.715
-9.829160156250001,-4.2535546875,45.993955078125005,-42.226890756302524,1616.7366946778711,435.6442577030813,IMU0,3.725
-15.644267578125001,-8.535849609375001,45.23712890625,-153.57142857142858,1673.249299719888,412.95518207282913,IMU0,3.735
-27.034980468750003,-7.702382812500001,43.464814453125,-253.22128851540617,1680.2521008403362,357.4229691876751,IMU0,3.745
-32.64890625,-6.102509765625,41.797880859375006,-328.9915966386555,1665.2661064425772,273.5294117647059,IMU0,3.755
-40.322548828125,-4.684658203125,39.402861328125006,-376.6806722689076,1684.3837535014006,171.6386554621849,IMU0,3.765
-44.039619140625,-1.5615527343750002,24.457939453125,-394.25770308123253,1734.873949579832,59.173669467787114,IMU0,3.775
-39.000498046875,2.3279589843750004,14.513818359375001,-377.4509803921569,1771.358543417367,-58.05322128851541,IMU0,3.785
-37.582646484375005,7.204218750000001,13.258828125,-326.1904761904762,1764.8459383753502,-167.0168067226891,IMU0,3.795
-30.531708984375,7.5682617187500005,1.66693359375,-246.6386554621849,1741.8067226890757,-252.3109243697479,IMU0,3.805
-34.35416015625,10.681787109375001,-1.7723144531250001,-147.40896358543418,1731.0224089635856,-310.99439775910366,IMU0,3.815
-22.791005859375,13.076806640625001,-2.941083984375,-35.64425770308124,1745.5182072829132,-340.0560224089636,IMU0,3.825
-10.135722656250001,16.238232421875,1.9543359375000002,78.92156862745098,1778.2212885154063,-335.4341736694678,IMU0,3.835
-1.149609375,18.317109375,2.6441015625000004,185.57422969187675,1782.9131652661065,-294.6078431372549,IMU0,3.845
5.23072265625,17.1675,0.296982421875,272.8291316526611,1750.700280112045,-223.38935574229694,IMU0,3.855
7.826923828125,14.887441406250002,12.578642578125,333.1932773109244,1733.6134453781513,-131.5826330532213,IMU0,3.865
7.846083984375,13.584550781250002,24.304658203125,363.09523809523813,1757.282913165266,-24.439775910364148,IMU0,3.875
10.09740234375,11.658955078125,25.454267578125002,358.9635854341737,1796.0084033613446,89.98599439775911,IMU0,3.885
4.042792968750001,7.999365234375,37.812568359375,322.61904761904765,1799.1596638655462,198.17927170868347,IMU0,3.895
2.08845703125,4.1002734375,39.4316015625,255.46218487394958,1792.5070028011205,289.7058823529412,IMU0,3.905
1.07296875,1.120869140625,38.5885546875,164.84593837535016,1793.7675070028013,356.02240896358546,IMU0,3.915
-15.376025390625001,-0.948427734375,45.917314453125,54.6218487394958,1816.3165266106444,391.6666666666667,IMU0,3.925
-20.587587890625002,-2.35669921875,40.437509765625,-59.03361344537815,1862.5350140056023,398.249299719888,IMU0,3.935
-30.091025390625003,-3.2284863281250002,41.922421875000005,-168.1372549019608,1864.4957983193278,365.7563025210084,IMU0,3.945
-33.827255859375,-1.9255957031250002,36.19353515625,-257.7731092436975,1867.0168067226891,301.1904761904762,IMU0,3.955
-34.39248046875,0.086220703125,26.61345703125,-321.42857142857144,1878.3613445378153,210.0840336134454,IMU0,3.965
-36.921621093750005,2.069296875,15.34728515625,-352.8011204481793,1891.4565826330534,102.10084033613445,IMU0,3.975
-34.39248046875,5.07744140625,15.395185546875002,-348.59943977591035,1877.5210084033615,-12.184873949579833,IMU0,3.985
-26.4793359375,8.085585937500001,2.4333398437500002,-306.7927170868347,1850.700280112045,-115.96638655462185,IMU0,3.995
-32.026201171875,10.662626953125,5.1732421875000005,-237.11484593837537,1823.9495798319329,-201.89075630252103,IMU0,4.005
-16.07537109375,13.85279296875,0.890947265625,-145.51820728291318,1831.232492997199,-260.29411764705884,IMU0,4.015
-0.70892578125,14.849121093750002,4.4068359375,-40.33613445378151,1839.2857142857144,-289.0056022408964,IMU0,4.025
2.01181640625,14.590458984375001,5.297783203125,63.72549019607843,1824.0896358543419,-280.3921568627451,IMU0,4.035
7.079677734375,13.536650390625,5.4031640625,157.98319327731093,1800.9803921568628,-241.38655462184875,IMU0,4.045
8.3155078125,13.843212890625,16.68849609375,232.98319327731093,1793.6974789915967,-175.63025210084035,IMU0,4.055
8.497529296875001,11.256591796875,24.630380859375002,284.4537815126051,1814.7058823529412,-88.79551820728291,IMU0,4.065
8.229287109375,8.938212890625001,31.40349609375,304.83193277310926,1835.5042016806724,11.554621848739496,IMU0,4.075
4.31103515625,3.6308496093750002,42.564287109375,292.50700280112045,1832.0728291316527,111.5546218487395,IMU0,4.085
1.78189453125,2.232158203125,41.778720703125,247.19887955182074,1831.3025210084033,203.64145658263305,IMU0,4.095
-2.0980371093750003,-0.354462890625,36.538417968750004,178.57142857142858,1842.2268907563025,276.890756302521,IMU0,4.105
-19.390078125000002,-4.8666796875000005,44.920986328125004,87.60504201680672,1869.607843137255,324.5798319327731,IMU0,4.115
-26.948759765625002,-6.399492187500001,44.834765625,-12.114845938375352,1900.140056022409,343.62745098039215,IMU0,4.125
-29.803623046875003,-8.056845703125001,41.78830078125,-111.06442577030813,1896.5686274509806,325.8403361344538,IMU0,4.135
-38.090390625000005,-7.721542968750001,37.477265625,-196.9187675070028,1890.1960784313726,274.85994397759106,IMU0,4.145
-30.416748046875004,-6.389912109375,25.473427734375,-258.33333333333337,1903.3613445378153,201.1904761904762,IMU0,4.155
-32.9937890625,-3.9182519531250004,20.424726562500002,-292.7871148459384,1916.7366946778711,108.12324929971989,IMU0,4.165
-28.64443359375,-1.4178515625,14.542558593750002,-293.69747899159665,1906.0224089635856,11.624649859943979,IMU0,4.175
-23.2604296875,1.302890625,8.296347656250001,-262.60504201680675,1871.5686274509806,-78.78151260504202,IMU0,4.185
-22.867646484375,4.44515625,6.514453125,-205.11204481792717,1851.2605042016808,-153.78151260504202,IMU0,4.195
-12.693603515625,7.635322265625001,6.207890625,-128.0812324929972,1848.5294117647059,-206.9327731092437,IMU0,4.205
-5.07744140625,9.29267578125,5.776787109375,-40.54621848739496,1856.372549019608,-231.44257703081234,IMU0,4.215
-0.48858398437500006,10.001601562500001,8.047265625,49.089635854341736,1828.9915966386554,-227.52100840336135,IMU0,4.225
5.853427734375001,10.356064453125,11.55357421875,129.34173669467788,1798.389355742297,-195.58823529411765,IMU0,4.235
6.811435546875001,9.972861328125001,17.18666015625,192.0168067226891,1787.5350140056023,-139.56582633053222,IMU0,4.245
6.03544921875,8.650810546875,24.917783203125,233.61344537815128,1793.6974789915967,-66.66666666666667,IMU0,4.255
6.409072265625,6.361171875,32.24654296875,248.9495798319328,1809.593837535014,16.456582633053223,IMU0,4.265
4.08111328125,3.7074902343750002,34.670302734375,237.53501400560225,1799.8599439775912,99.50980392156863,IMU0,4.275
0.910107421875,1.2837304687500002,42.86126953125,198.3893557422969,1788.5854341736695,173.73949579831933,IMU0,4.285
-3.65958984375,-0.6227050781250001,36.433037109375,139.2156862745098,1803.2212885154063,234.31372549019608,IMU0,4.295
-15.04072265625,-1.619033203125,35.944453125,68.0672268907563,1814.0056022408965,272.47899159663865,IMU0,4.305
-19.9648828125,-3.7074902343750002,39.709423828125004,-13.305322128851541,1836.6946778711485,287.7450980392157,IMU0,4.315
-28.711494140625003,-4.033212890625,41.778720703125,-94.18767507002802,1831.9327731092437,272.89915966386553,IMU0,4.325
-27.245742187500003,-3.400927734375,34.210458984375,-162.39495798319328,1825.9803921568628,233.1232492997199,IMU0,4.335
-29.171337890625,-2.040556640625,27.964248046875003,-213.02521008403363,1815.8963585434174,171.9187675070028,IMU0,4.345
-31.3843359375,-0.718505859375,18.700312500000003,-239.49579831932775,1805.3221288515408,100.21008403361346,IMU0,4.355
-25.492587890625003,1.504072265625,9.551337890625001,-240.3361344537815,1782.9131652661065,23.03921568627451,IMU0,4.365
-22.771845703125003,3.7074902343750002,-1.2454101562500002,-212.2549019607843,1716.3165266106444,-50.420168067226896,IMU0,4.375
-18.7386328125,5.489384765625,-5.374423828125001,-164.2156862745098,1630.5322128851542,-107.42296918767508,IMU0,4.385
-13.182187500000001,6.868916015625,-0.948427734375,-106.02240896358543,1554.6218487394958,-146.42857142857144,IMU0,4.395
-5.125341796875,8.64123046875,-2.7494824218750002,-45.23809523809524,1500.7703081232494,-166.1764705882353,IMU0,4.405
7.137158203125001,7.961044921875001,1.8776953125000002,12.46498599439776,1454.4817927170868,-161.76470588235296,IMU0,4.415
2.692001953125,7.683222656250001,-2.9889843750000002,64.14565826330532,1402.0308123249301,-148.73949579831933,IMU0,4.425
19.236796875,6.983876953125001,2.8261230468750003,106.58263305322129,1335.9243697478992,-118.55742296918768,IMU0,4.435
12.157119140625001,5.795947265625,6.84017578125,136.83473389355743,1283.6134453781513,-81.37254901960785,IMU0,4.445
15.222744140625,4.675078125000001,3.7649707031250004,153.22128851540617,1249.5098039215686,-37.81512605042017,IMU0,4.455
7.357500000000001,3.956572265625,8.353828125,161.2044817927171,1228.641456582633,2.5910364145658265,IMU0,4.465
12.252919921875002,3.3338671875,12.645703125,158.82352941176472,1222.0588235294117,45.30812324929972,IMU0,4.475
18.10634765625,2.0980371093750003,20.6546484375,146.70868347338936,1212.324929971989,86.48459383753502,IMU0,4.485
5.8917480468750005,-0.162861328125,20.616328125000003,118.55742296918768,1195.6582633053222,124.57983193277312,IMU0,4.495
14.762900390625001,-0.48858398437500006,29.315039062500002,44.957983193277315,1152.871148459384,174.01960784313727,IMU0,4.505
1.005908203125,-0.59396484375,31.40349609375,1.1904761904761905,1137.2549019607843,183.4733893557423,IMU0,4.515
-7.10841796875,-1.159189453125,21.986279296875,-40.476190476190474,1128.781512605042,182.84313725490196,IMU0,4.525
1.1879296875,-1.37953125,24.228017578125,-78.22128851540617,1120.0980392156864,169.39775910364148,IMU0,4.535
-8.382568359375,-0.9388476562500001,30.29220703125,-114.56582633053222,1122.7591036414567,151.75070028011206,IMU0,4.545
-6.6964746093750005,-1.0154882812500001,22.254521484375,-143.76750700280112,1121.5686274509803,126.68067226890757,IMU0,4.555
-14.9066015625,-0.067060546875,27.523564453125,-169.11764705882354,1088.375350140056,91.45658263305323,IMU0,4.565
-18.441650390625,0.6227050781250001,22.934707031250003,-184.45378151260505,1051.6106442577031,50.280112044817926,IMU0,4.575
-17.081279296875,1.1112890625,17.397421875000003,-190.75630252100842,1008.3333333333334,8.263305322128852,IMU0,4.585
-21.708457031250003,1.5328125000000001,15.816708984375001,-185.7843137254902,959.8039215686275,-37.39495798319328,IMU0,4.595
-23.499931640625,2.16509765625,12.58822265625,-173.66946778711485,916.1064425770309,-80.46218487394958,IMU0,4.605
-24.06515625,2.289638671875,5.958808593750001,-152.52100840336135,869.3977591036415,-122.3389355742297,IMU0,4.615
-26.795478515625003,2.6728417968750002,4.0236328125,-124.78991596638656,813.0952380952382,-163.23529411764707,IMU0,4.625
-22.791005859375,3.113525390625,-0.39278320312500004,-93.27731092436976,752.6610644257703,-195.7983193277311,IMU0,4.635
-20.09900390625,3.4584082031250003,-0.335302734375,-58.543417366946784,683.9635854341738,-223.59943977591038,IMU0,4.645
-16.1328515625,3.4392480468750004,-4.358935546875,-23.03921568627451,611.7647058823529,-244.04761904761907,IMU0,4.655
-15.11736328125,3.1997460937500004,-6.083349609375,10.994397759103641,524.2997198879552,-259.80392156862746,IMU0,4.665
-12.904365234375001,2.8931835937500003,-5.8246875000000005,42.92717086834734,440.7563025210084,-270.30812324929974,IMU0,4.675
-10.202783203125001,2.77822265625,-8.3155078125,71.5686274509804,363.4453781512605,-277.59103641456585,IMU0,4.685
-8.123906250000001,2.5099804687500002,-6.830595703125001,96.70868347338936,285.29411764705884,-282.3529411764706,IMU0,4.695
-6.99345703125,1.6477734375000002,-8.401728515625,117.64705882352942,216.24649859943978,-285.7843137254902,IMU0,4.705
-6.830595703125001,0.8238867187500001,-9.053173828125,135.08403361344537,145.93837535014006,-289.4257703081233,IMU0,4.715
-6.198310546875001,0.047900390625000004,-7.8077636718750005,149.6498599439776,78.64145658263305,-293.9075630252101,IMU0,4.725
-5.0966015625,-0.162861328125,-7.683222656250001,160.64425770308125,15.336134453781513,-299.15966386554624,IMU0,4.735
-4.1002734375,-0.70892578125,-6.18873046875,167.64705882352942,-44.04761904761905,-305.1120448179272,IMU0,4.745
-4.981640625000001,-1.2454101562500002,-5.748046875,170.93837535014006,-87.11484593837535,-311.9747899159664,IMU0,4.755
-5.470224609375,-2.069296875,-5.57560546875,171.5686274509804,-119.53781512605043,-319.5378151260504,IMU0,4.765
-4.895419921875001,-3.094365234375,-5.05828125,169.88795518207283,-145.51820728291318,-328.01120448179273,IMU0,4.775
-4.186494140625,-4.014052734375,-5.010380859375,166.1764705882353,-167.43697478991598,-336.5546218487395,IMU0,4.785
-2.442919921875,-4.972060546875,-3.2763867187500004,160.3641456582633,-183.8935574229692,-344.3977591036415,IMU0,4.795
-2.8740234375,-5.9779687500000005,-3.324287109375,153.29131652661064,-195.8683473389356,-351.9607843137255,IMU0,4.805
-1.101708984375,-6.907236328125,-1.9255957031250002,144.11764705882354,-207.63305322128852,-358.2633053221289,IMU0,4.815
1.6381933593750002,-7.3287597656250005,-2.040556640625,134.1736694677871,-221.218487394958,-363.5854341736695,IMU0,4.825
3.65958984375,-7.462880859375001,0.9580078125000001,121.91876750700281,-239.14565826330534,-367.15686274509807,IMU0,4.835
3.0560449218750003,-7.252119140625,3.42966796875,106.09243697478992,-258.61344537815125,-371.00840336134456,IMU0,4.845
22.877226562500002,-8.190966796875001,6.888076171875,84.80392156862746,-271.218487394958,-357.56302521008405,IMU0,4.855
21.104912109375,-10.279423828125001,-1.178349609375,70.65826330532214,-292.08683473389357,-349.3697478991597,IMU0,4.865
16.305292968750003,-10.202783203125001,0.9675878906250001,50.21008403361345,-322.61904761904765,-338.79551820728295,IMU0,4.875
22.3790625,-10.59556640625,7.0221972656250005,30.602240896358545,-351.2605042016807,-323.249299719888,IMU0,4.885
22.800585937500003,-10.825488281250001,-0.5269042968750001,10.714285714285715,-380.0420168067227,-306.0924369747899,IMU0,4.895
23.279589843750003,-11.333232421875001,-0.890947265625,-7.42296918767507,-399.08963585434174,-284.24369747899163,IMU0,4.905
26.450595703125003,-11.01708984375,-1.6094531250000002,-23.03921568627451,-403.9915966386555,-259.4537815126051,IMU0,4.915
28.088789062500002,-10.950029296875,-5.374423828125001,-35.22408963585434,-394.74789915966386,-231.09243697478993,IMU0,4.925
26.632617187500003,-10.528505859375,-9.71419921875,-44.397759103641455,-369.6778711484594,-203.0812324929972,IMU0,4.935
24.342978515625003,-9.4651171875,-7.357500000000001,-48.109243697478995,-334.0336134453782,-174.78991596638656,IMU0,4.945
21.018691406250003,-7.6544824218750005,-8.123906250000001,-48.879551820728295,-293.06722689075633,-148.17927170868347,IMU0,4.955
18.479970703125,-6.514453125,-9.953701171875,-47.82913165266107,-247.89915966386556,-124.43977591036415,IMU0,4.965
18.163828125000002,-5.8246875000000005,-8.478369140625,-44.537815126050425,-201.40056022408965,-103.0812324929972,IMU0,4.975
16.410673828125002,-5.374423828125001,-8.871152343750001,-40.056022408963585,-157.703081232493,-83.82352941176471,IMU0,4.985
18.508710937500002,-5.4989648437500005,-9.513017578125,-35.0140056022409,-110.85434173669468,-64.6358543417367,IMU0,4.995
20.415146484375,-6.083349609375,-10.174042968750001,-28.43137254901961,-60.504201680672274,-44.957983193277315,IMU0,5.005
24.093896484375,-6.868916015625,-11.409873046875001,-20.308123249299722,-7.212885154061625,-22.54901960784314,IMU0,5.015
28.280390625000003,-6.5431933593750005,-12.521162109375,-10.714285714285715,34.38375350140056,1.6106442577030813,IMU0,5.025
19.112255859375,-5.38400390625,-8.420888671875,-1.9607843137254903,59.03361344537815,23.179271708683473,IMU0,5.035
14.715000000000002,-4.531376953125,-4.3876757812500005,4.201680672268908,76.47058823529412,42.15686274509804,IMU0,5.045
16.381933593750002,-4.4834765625,-5.518125,8.053221288515406,85.57422969187675,57.352941176470594,IMU0,5.055
14.858701171875001,-4.9337402343750005,-3.7074902343750002,11.27450980392157,88.16526610644259,70.93837535014006,IMU0,5.065
17.943486328125,-5.144501953125,-5.029541015625,14.005602240896359,88.23529411764706,85.50420168067227,IMU0,5.075
13.728251953125001,-5.010380859375,-3.3817675781250003,16.526610644257705,80.95238095238095,98.59943977591037,IMU0,5.085
14.456337890625,-4.88583984375,-2.77822265625,18.347338935574232,72.6890756302521,111.83473389355743,IMU0,5.095
13.919853515625,-4.818779296875,-3.4871484375,19.817927170868348,61.20448179271709,123.59943977591037,IMU0,5.105
12.051738281250001,-4.44515625,-2.0980371093750003,21.35854341736695,49.089635854341736,134.87394957983193,IMU0,5.115
10.748847656250001,-4.08111328125,-2.289638671875,22.689075630252102,37.81512605042017,144.88795518207283,IMU0,5.125
10.59556640625,-4.08111328125,-2.1459375,23.87955182072829,27.24089635854342,153.99159663865547,IMU0,5.135
10.5380859375,-3.7745507812500003,-1.676513671875,24.92997198879552,15.266106442577032,162.67507002801122,IMU0,5.145
8.9286328125,-3.4679882812500002,-1.4082714843750002,26.260504201680675,1.9607843137254903,170.58823529411765,IMU0,5.155
7.7790234375,-3.3913476562500002,-1.274150390625,27.801120448179272,-10.504201680672269,177.59103641456582,IMU0,5.165
8.076005859375,-3.343447265625,-1.580712890625,29.481792717086837,-21.288515406162468,184.17366946778714,IMU0,5.175
7.003037109375001,-3.1518457031250002,-1.235830078125,31.65266106442577,-31.65266106442577,189.9859943977591,IMU0,5.185
5.776787109375,-3.1518457031250002,-1.044228515625,33.96358543417367,-40.96638655462185,195.16806722689077,IMU0,5.195
5.508544921875,-3.16142578125,-0.8238867187500001,36.34453781512605,-49.299719887955185,199.6498599439776,IMU0,5.205
4.7133984375,-3.1422656250000003,-0.8238867187500001,39.00560224089636,-57.212885154061624,203.5014005602241,IMU0,5.215
3.822451171875,-3.171005859375,-0.41194335937500004,41.806722689075634,-64.77591036414566,206.5826330532213,IMU0,5.225
3.2189062500000003,-3.420087890625,-0.23950195312500003,44.747899159663866,-71.35854341736695,209.10364145658264,IMU0,5.235
2.5866210937500003,-3.496728515625,-0.335302734375,47.54901960784314,-76.33053221288516,211.06442577030813,IMU0,5.245
1.944755859375,-3.6116894531250003,-0.316142578125,50.56022408963586,-79.27170868347339,212.39495798319328,IMU0,5.255
1.657353515625,-3.7170703125,0.067060546875,53.8515406162465,-81.23249299719889,213.23529411764707,IMU0,5.265
0.8430468750000001,-3.726650390625,0.22034179687500002,56.792717086834735,-82.77310924369748,213.65546218487395,IMU0,5.275
0.2682421875,-3.6979101562500003,0.49816406250000006,59.66386554621849,-84.10364145658264,213.58543417366948,IMU0,5.285
-0.22992187500000003,-3.6691699218750005,0.699345703125,62.18487394957983,-85.57422969187675,212.88515406162466,IMU0,5.295
-0.6418652343750001,-3.4679882812500002,0.7472460937500001,64.91596638655463,-87.04481792717087,211.624649859944,IMU0,5.305
-0.8622070312500001,-3.42966796875,1.0154882812500001,67.3669467787115,-88.65546218487395,210.0140056022409,IMU0,5.315
-1.43701171875,-3.4105078125,1.2645703125,69.74789915966387,-90.68627450980392,208.0532212885154,IMU0,5.325
-2.70158203125,-3.4584082031250003,1.676513671875,71.84873949579833,-93.27731092436976,205.11204481792717,IMU0,5.335
-3.554208984375,-3.477568359375,2.136357421875,73.66946778711485,-96.35854341736695,201.47058823529412,IMU0,5.345
-4.071533203125,-3.65958984375,2.538720703125,75.21008403361346,-100.56022408963585,196.9887955182073,IMU0,5.355
-4.3876757812500005,-3.7937109375,2.7303222656250004,76.82072829131653,-106.09243697478992,191.80672268907563,IMU0,5.365
-4.895419921875001,-3.9182519531250004,2.9027636718750003,78.29131652661064,-112.88515406162466,186.1344537815126,IMU0,5.375
-5.182822265625,-3.9374121093750003,3.1422656250000003,79.69187675070029,-120.44817927170868,179.76190476190476,IMU0,5.385
-5.451064453125,-3.7074902343750002,3.4488281250000004,80.88235294117648,-127.73109243697479,173.03921568627453,IMU0,5.395
-5.872587890625001,-3.477568359375,3.50630859375,81.9327731092437,-133.75350140056022,165.89635854341736,IMU0,5.405
-6.715634765625,-3.2189062500000003,3.9182519531250004,82.703081232493,-138.37535014005604,158.26330532212887,IMU0,5.415
-7.529941406250001,-3.2955468750000003,4.167333984375,82.98319327731093,-140.8263305322129,149.92997198879553,IMU0,5.425
-6.7826953125000005,-3.31470703125,4.378095703125,83.05322128851542,-140.54621848739495,141.9467787114846,IMU0,5.435
-6.524033203125001,-3.2284863281250002,4.368515625000001,82.63305322128852,-138.02521008403363,134.2436974789916,IMU0,5.445
-6.811435546875001,-3.08478515625,4.512216796875,81.65266106442577,-133.19327731092437,126.61064425770309,IMU0,5.455
-6.638994140625001,-2.9794042968750003,4.4547363281250005,80.32212885154063,-125.28011204481793,119.32773109243698,IMU0,5.465
-6.6964746093750005,-2.8261230468750003,4.282294921875001,78.5014005602241,-115.12605042016807,112.39495798319328,IMU0,5.475
-6.399492187500001,-2.6441015625000004,4.473896484375,76.33053221288516,-103.01120448179272,105.812324929972,IMU0,5.485
-6.265371093750001,-2.4525,4.42599609375,73.73949579831933,-89.6358543417367,99.64985994397759,IMU0,5.495
-6.121669921875,-2.3375390625000003,4.339775390625,70.65826330532214,-75.56022408963585,93.83753501400561,IMU0,5.505
-5.968388671875,-2.2704785156250002,4.23439453125,67.43697478991596,-60.85434173669468,88.44537815126051,IMU0,5.515
-5.834267578125,-2.117197265625,4.0619531250000005,60.08403361344538,-29.901960784313726,78.43137254901961,IMU0,5.525
-5.88216796875,-2.05013671875,4.033212890625,56.09243697478992,-14.705882352941178,73.80952380952381,IMU0,5.535
-5.604345703125,-1.9926562500000002,3.8320312500000004,52.17086834733894,0.2801120448179272,69.46778711484595,IMU0,5.545
-5.326523437500001,-1.85853515625,3.7649707031250004,48.03921568627451,14.075630252100842,65.33613445378151,IMU0,5.555
-5.11576171875,-1.714833984375,3.5637890625,43.90756302521009,26.330532212885156,61.41456582633054,IMU0,5.565
-4.761298828125001,-1.55197265625,3.4679882812500002,39.845938375350144,36.83473389355743,57.703081232493,IMU0,5.575
-4.57927734375,-1.4561718750000001,3.3626074218750004,36.06442577030813,45.79831932773109,54.13165266106443,IMU0,5.585
-4.15775390625,-1.3412109375,2.9889843750000002,32.28291316526611,53.50140056022409,50.840336134453786,IMU0,5.595
-3.96615234375,-1.197509765625,2.835703125,28.8515406162465,59.943977591036415,47.75910364145658,IMU0,5.605
-3.7170703125,-1.063388671875,2.4908203125000004,25.7703081232493,65.12605042016807,44.747899159663866,IMU0,5.615
-3.5350488281250003,-1.025068359375,2.4141796875000003,22.829131652661065,69.04761904761905,41.9467787114846,IMU0,5.625
-3.23806640625,-0.929267578125,2.117197265625,20.238095238095237,72.19887955182074,39.285714285714285,IMU0,5.635
-3.1039453125,-0.8430468750000001,1.9734960937500001,17.857142857142858,74.29971988795519,36.62464985994398,IMU0,5.645
-3.017724609375,-0.8047265625000001,1.9543359375000002,15.336134453781513,75.84033613445378,34.2436974789916,IMU0,5.655
-2.768642578125,-0.7855664062500001,1.676513671875,13.165266106442578,76.75070028011204,31.792717086834735,IMU0,5.665
-2.538720703125,-0.67060546875,1.6094531250000002,11.134453781512606,77.03081232492998,29.481792717086837,IMU0,5.675
-2.385439453125,-0.613125,1.427431640625,9.313725490196079,76.9607843137255,27.380952380952383,IMU0,5.685
-2.16509765625,-0.536484375,1.3220507812500002,7.633053221288516,76.47058823529412,25.35014005602241,IMU0,5.695
-2.05013671875,-0.5077441406250001,1.2645703125,6.162464985994398,75.56022408963585,23.459383753501402,IMU0,5.705
-1.8872753906250002,-0.46942382812500005,1.1687695312500002,4.621848739495799,74.29971988795519,21.568627450980394,IMU0,5.715
-1.8106347656250001,-0.42152343750000004,1.140029296875,3.361344537815126,72.61904761904762,19.817927170868348,IMU0,5.725
-1.7244140625000002,-0.40236328125000004,1.0154882812500001,2.3109243697478994,70.72829131652661,18.067226890756302,IMU0,5.735
-1.70525390625,-0.38320312500000003,1.005908203125,1.1204481792717087,68.4873949579832,16.38655462184874,IMU0,5.745
-1.580712890625,-0.335302734375,0.9196875000000001,-0.2801120448179272,66.38655462184875,14.84593837535014,IMU0,5.755
-1.5328125000000001,-0.316142578125,0.910107421875,-0.9103641456582633,63.58543417366947,13.095238095238097,IMU0,5.765
-1.4561718750000001,-0.3065625,0.8238867187500001,-1.8207282913165266,60.64425770308124,11.554621848739496,IMU0,5.775
-1.3220507812500002,-0.258662109375,0.699345703125,-2.5210084033613445,57.563025210084035,10.014005602240896,IMU0,5.785
-1.2933105468750001,-0.28740234375,0.689765625,-3.2212885154061626,54.20168067226891,8.543417366946779,IMU0,5.795
-1.235830078125,-0.22992187500000003,0.6227050781250001,-3.8515406162464987,50.63025210084034,7.142857142857143,IMU0,5.805
-1.1304492187500002,-0.22992187500000003,0.49816406250000006,-4.481792717086835,46.98879551820728,5.742296918767507,IMU0,5.815
-1.044228515625,-0.21076171875000002,0.47900390625000006,-4.761904761904762,43.0672268907563,4.411764705882353,IMU0,5.825
-0.9963281250000001,-0.15328125,0.41194335937500004,-5.182072829131653,39.14565826330532,3.2212885154061626,IMU0,5.835
-0.8047265625000001,-0.13412109375,0.39278320312500004,-5.5322128851540615,35.364145658263304,2.030812324929972,IMU0,5.845
-0.795146484375,-0.11496093750000001,0.354462890625,-5.8123249299719895,31.58263305322129,0.9103641456582633,IMU0,5.855
-0.737666015625,-0.11496093750000001,0.316142578125,-6.022408963585434,27.941176470588236,-0.0700280112044818,IMU0,5.865
-0.6418652343750001,-0.11496093750000001,0.2682421875,-6.23249299719888,24.369747899159666,-1.1204481792717087,IMU0,5.875
-0.680185546875,-0.067060546875,0.28740234375,-6.442577030812325,21.008403361344538,-1.9607843137254903,IMU0,5.885
-0.5748046875,-0.057480468750000006,0.23950195312500003,-6.722689075630252,17.717086834733895,-2.801120448179272,IMU0,5.895
-0.49816406250000006,-0.067060546875,0.22992187500000003,-6.792717086834735,14.635854341736696,-3.5714285714285716,IMU0,5.905
-0.5077441406250001,-0.0383203125,0.19160156250000002,-6.792717086834735,11.624649859943979,-4.341736694677872,IMU0,5.915
-0.44068359375000005,-0.0383203125,0.19160156250000002,-6.862745098039216,8.893557422969188,-4.971988795518207,IMU0,5.925
-0.41194335937500004,-0.028740234375000003,0.162861328125,-7.072829131652662,6.23249299719888,-5.602240896358544,IMU0,5.935
-0.40236328125000004,-0.01916015625,0.15328125,-7.212885154061625,3.5014005602240896,-6.23249299719888,IMU0,5.945
-0.3448828125,0.0,0.15328125,-7.072829131652662,0.9103641456582633,-6.792717086834735,IMU0,5.955
-0.3065625,0.009580078125,0.15328125,-7.282913165266106,-1.3305322128851542,-7.282913165266106,IMU0,5.965
-0.22034179687500002,0.028740234375000003,0.12454101562500001,-7.352941176470589,-3.2212885154061626,-7.703081232492997,IMU0,5.975
-0.15328125,0.028740234375000003,0.10538085937500001,-7.42296918767507,-4.901960784313726,-8.053221288515406,IMU0,5.985
-0.162861328125,-0.009580078125,0.086220703125,-7.42296918767507,-6.302521008403362,-8.333333333333334,IMU0,5.995
-0.17244140625,0.009580078125,0.086220703125,-7.282913165266106,-7.843137254901961,-8.61344537815126,IMU0,6.005
-0.19160156250000002,0.028740234375000003,0.10538085937500001,-7.352941176470589,-9.38375350140056,-8.893557422969188,IMU0,6.015
-0.22034179687500002,0.0,0.10538085937500001,-7.42296918767507,-11.064425770308123,-9.173669467787116,IMU0,6.025
-0.23950195312500003,0.028740234375000003,0.10538085937500001,-7.492997198879552,-12.88515406162465,-9.523809523809524,IMU0,6.035
-0.13412109375,0.01916015625,0.09580078125000001,-7.563025210084034,-14.495798319327731,-9.803921568627452,IMU0,6.045
-0.21076171875000002,0.028740234375000003,0.086220703125,-7.563025210084034,-16.176470588235293,-10.154061624649861,IMU0,6.055
-0.11496093750000001,0.0383203125,0.067060546875,-7.563025210084034,-17.50700280112045,-10.364145658263306,IMU0,6.065
-0.18202148437500001,0.009580078125,0.076640625,-7.633053221288516,-18.837535014005603,-10.644257703081234,IMU0,6.075
-0.15328125,0.0383203125,0.086220703125,-7.703081232492997,-20.238095238095237,-10.92436974789916,IMU0,6.085
-0.15328125,0.0383203125,0.09580078125000001,-7.703081232492997,-21.84873949579832,-11.204481792717088,IMU0,6.095
-0.20118164062500002,0.01916015625,0.09580078125000001,-7.703081232492997,-23.38935574229692,-11.554621848739496,IMU0,6.105
-0.22034179687500002,0.0,0.09580078125000001,-7.843137254901961,-25.35014005602241,-11.834733893557424,IMU0,6.115
-0.143701171875,0.01916015625,0.057480468750000006,-7.913165266106443,-27.17086834733894,-12.184873949579833,IMU0,6.125
-0.28740234375,0.0,0.086220703125,-8.053221288515406,-29.131652661064425,-12.53501400560224,IMU0,6.135
-0.12454101562500001,0.028740234375000003,0.047900390625000004,-8.123249299719888,-31.1624649859944,-12.815126050420169,IMU0,6.145
-0.0383203125,0.076640625,0.057480468750000006,-7.983193277310924,-32.913165266106446,-13.095238095238097,IMU0,6.155
-0.17244140625,0.028740234375000003,0.067060546875,-8.053221288515406,-34.38375350140056,-13.305322128851541,IMU0,6.165
-0.10538085937500001,0.028740234375000003,0.057480468750000006,-8.123249299719888,-35.85434173669468,-13.445378151260504,IMU0,6.175
-0.076640625,0.047900390625000004,0.009580078125,-8.19327731092437,-37.324929971988794,-13.65546218487395,IMU0,6.185
-0.11496093750000001,0.057480468750000006,0.028740234375000003,-8.053221288515406,-38.655462184873954,-13.865546218487395,IMU0,6.195
-0.0383203125,0.028740234375000003,0.028740234375000003,-8.19327731092437,-39.845938375350144,-13.935574229691877,IMU0,6.205
-0.067060546875,0.0383203125,0.0383203125,-8.333333333333334,-41.036414565826334,-14.075630252100842,IMU0,6.215
-0.21076171875000002,0.057480468750000006,0.057480468750000006,-8.333333333333334,-42.50700280112045,-14.215686274509805,IMU0,6.225
-0.162861328125,0.01916015625,0.01916015625,-8.473389355742297,-44.46778711484594,-14.42577030812325,IMU0,6.235
-0.11496093750000001,0.0,0.0,-8.61344537815126,-46.498599439775916,-14.705882352941178,IMU0,6.245
-0.43110351562500004,-0.01916015625,0.086220703125,-8.543417366946779,-48.94957983193277,-15.056022408963585,IMU0,6.255
-0.12454101562500001,-0.028740234375000003,0.009580078125,-8.543417366946779,-51.680672268907564,-15.406162464985995,IMU0,6.265
-0.22992187500000003,-0.01916015625,0.047900390625000004,-8.683473389355743,-54.27170868347339,-15.756302521008404,IMU0,6.275
-0.24908203125000003,-0.009580078125,0.047900390625000004,-8.753501400560225,-56.58263305322129,-16.106442577030812,IMU0,6.285
-0.15328125,-0.01916015625,0.009580078125,-8.893557422969188,-58.82352941176471,-16.456582633053223,IMU0,6.295
-0.162861328125,0.0,0.028740234375000003,-9.033613445378151,-60.714285714285715,-16.73669467787115,IMU0,6.305
-0.18202148437500001,0.0383203125,0.0,-8.96358543417367,-62.464985994397765,-16.946778711484594,IMU0,6.315
-0.09580078125000001,0.0383203125,0.0,-9.173669467787116,-63.72549019607843,-17.15686274509804,IMU0,6.325
-0.10538085937500001,0.067060546875,-0.028740234375000003,-9.313725490196079,-64.77591036414566,-17.296918767507005,IMU0,6.335
-0.0383203125,0.067060546875,-0.01916015625,-9.38375350140056,-65.47619047619048,-17.366946778711487,IMU0,6.345
-0.047900390625000004,0.086220703125,-0.01916015625,-9.73389355742297,-66.03641456582633,-17.366946778711487,IMU0,6.355
-0.076640625,0.067060546875,-0.028740234375000003,-9.663865546218489,-66.73669467787116,-17.366946778711487,IMU0,6.365
-0.076640625,0.086220703125,-0.028740234375000003,-9.73389355742297,-67.29691876750701,-17.366946778711487,IMU0,6.375
-0.076640625,0.057480468750000006,-0.047900390625000004,-9.873949579831933,-67.85714285714286,-17.296918767507005,IMU0,6.385
-0.086220703125,0.067060546875,-0.047900390625000004,-9.873949579831933,-68.4873949579832,-17.296918767507005,IMU0,6.395
-0.10538085937500001,0.076640625,-0.028740234375000003,-9.943977591036415,-69.04761904761905,-17.366946778711487,IMU0,6.405
-0.057480468750000006,0.057480468750000006,-0.076640625,-10.014005602240896,-69.67787114845939,-17.296918767507005,IMU0,6.415
-0.09580078125000001,0.067060546875,-0.047900390625000004,-10.154061624649861,-70.0280112044818,-17.296918767507005,IMU0,6.425
-0.057480468750000006,0.057480468750000006,-0.09580078125000001,-10.434173669467787,-70.51820728291317,-17.22689075630252,IMU0,6.435
-0.057480468750000006,0.09580078125000001,-0.086220703125,-10.57422969187675,-71.1484593837535,-17.22689075630252,IMU0,6.445
-0.086220703125,0.057480468750000006,-0.057480468750000006,-10.644257703081234,-71.70868347338936,-17.15686274509804,IMU0,6.455
-0.057480468750000006,0.076640625,-0.067060546875,-10.854341736694678,-72.26890756302521,-17.15686274509804,IMU0,6.465
-0.09580078125000001,0.067060546875,-0.076640625,-10.714285714285715,-73.109243697479,-17.15686274509804,IMU0,6.475
-0.067060546875,0.057480468750000006,-0.09580078125000001,-10.854341736694678,-73.80952380952381,-17.22689075630252,IMU0,6.485
-0.09580078125000001,0.028740234375000003,-0.086220703125,-10.92436974789916,-74.50980392156863,-17.15686274509804,IMU0,6.495
-0.12454101562500001,0.057480468750000006,-0.086220703125,-11.204481792717088,-75.28011204481793,-17.15686274509804,IMU0,6.505
-0.162861328125,0.028740234375000003,-0.076640625,-11.27450980392157,-76.05042016806723,-17.15686274509804,IMU0,6.515
-0.162861328125,0.01916015625,-0.086220703125,-11.554621848739496,-77.03081232492998,-17.22689075630252,IMU0,6.525
-0.18202148437500001,0.047900390625000004,-0.076640625,-11.554621848739496,-78.15126050420169,-17.296918767507005,IMU0,6.535
-0.17244140625,0.0383203125,-0.09580078125000001,-11.624649859943979,-80.53221288515407,-17.43697478991597,IMU0,6.545
-0.11496093750000001,0.009580078125,-0.086220703125,-11.974789915966387,-81.79271708683474,-17.43697478991597,IMU0,6.555
-0.20118164062500002,-0.01916015625,-0.11496093750000001,-12.114845938375352,-83.12324929971989,-17.57703081232493,IMU0,6.565
-0.162861328125,0.0,-0.11496093750000001,-12.254901960784315,-84.38375350140056,-17.57703081232493,IMU0,6.575
-0.17244140625,0.0,-0.13412109375,-12.394957983193278,-85.64425770308124,-17.647058823529413,IMU0,6.585
-0.19160156250000002,0.0,-0.13412109375,-12.394957983193278,-86.9747899159664,-17.717086834733895,IMU0,6.595
-0.12454101562500001,0.0383203125,-0.15328125,-12.605042016806724,-88.16526610644259,-17.787114845938376,IMU0,6.605
-0.20118164062500002,0.047900390625000004,-0.15328125,-13.025210084033613,-88.93557422969188,-17.787114845938376,IMU0,6.615
-0.21076171875000002,0.057480468750000006,-0.17244140625,-13.095238095238097,-89.77591036414566,-17.787114845938376,IMU0,6.625
-0.21076171875000002,0.028740234375000003,-0.15328125,-13.165266106442578,-90.75630252100841,-17.787114845938376,IMU0,6.635
-0.20118164062500002,0.057480468750000006,-0.162861328125,-13.375350140056023,-91.66666666666667,-17.717086834733895,IMU0,6.645
-0.13412109375,0.067060546875,-0.15328125,-13.515406162464986,-92.57703081232494,-17.647058823529413,IMU0,6.655
-0.13412109375,0.057480468750000006,-0.162861328125,-13.795518207282914,-93.34733893557423,-17.57703081232493,IMU0,6.665
-0.162861328125,0.057480468750000006,-0.19160156250000002,-13.935574229691877,-94.04761904761905,-17.366946778711487,IMU0,6.675
-0.22992187500000003,0.047900390625000004,-0.17244140625,-14.005602240896359,-94.67787114845939,-17.366946778711487,IMU0,6.685
-0.22034179687500002,0.076640625,-0.19160156250000002,-14.285714285714286,-94.81792717086836,-17.22689075630252,IMU0,6.695
-0.18202148437500001,0.09580078125000001,-0.18202148437500001,-14.285714285714286,-95.0280112044818,-17.15686274509804,IMU0,6.705
-0.21076171875000002,0.057480468750000006,-0.18202148437500001,-14.495798319327731,-95.23809523809524,-17.016806722689076,IMU0,6.715
-0.18202148437500001,0.086220703125,-0.22034179687500002,-14.705882352941178,-95.44817927170868,-16.876750700280112,IMU0,6.725
-0.162861328125,0.09580078125000001,-0.21076171875000002,-14.775910364145659,-95.65826330532214,-16.73669467787115,IMU0,6.735
-0.13412109375,0.076640625,-0.22992187500000003,-15.126050420168069,-95.93837535014006,-16.526610644257705,IMU0,6.745
-0.15328125,0.10538085937500001,-0.22034179687500002,-15.266106442577032,-96.21848739495799,-16.31652661064426,IMU0,6.755
-0.21076171875000002,0.10538085937500001,-0.20118164062500002,-15.336134453781513,-96.77871148459384,-16.176470588235293,IMU0,6.765
-0.24908203125000003,0.057480468750000006,-0.18202148437500001,-15.476190476190476,-97.05882352941177,-16.03641456582633,IMU0,6.775
-0.354462890625,0.076640625,-0.19160156250000002,-15.686274509803923,-97.3389355742297,-15.966386554621849,IMU0,6.785
-0.41194335937500004,0.086220703125,-0.143701171875,-15.826330532212886,-97.40896358543418,-15.896358543417367,IMU0,6.795
-0.40236328125000004,0.086220703125,-0.162861328125,-16.106442577030812,-97.26890756302521,-15.826330532212886,IMU0,6.805
-0.45984375000000005,0.076640625,-0.12454101562500001,-16.176470588235293,-97.12885154061625,-15.686274509803923,IMU0,6.815
-0.39278320312500004,0.067060546875,-0.143701171875,-16.38655462184874,-97.05882352941177,-15.616246498599441,IMU0,6.825
-0.42152343750000004,0.09580078125000001,-0.15328125,-16.596638655462186,-97.26890756302521,-15.546218487394958,IMU0,6.835
-0.42152343750000004,0.076640625,-0.19160156250000002,-16.80672268907563,-97.19887955182074,-15.406162464985995,IMU0,6.845
-0.46942382812500005,0.11496093750000001,-0.20118164062500002,-17.15686274509804,-97.19887955182074,-15.266106442577032,IMU0,6.855
-0.46942382812500005,0.086220703125,-0.19160156250000002,-17.296918767507005,-96.63865546218487,-15.19607843137255,IMU0,6.865
-0.5077441406250001,0.09580078125000001,-0.143701171875,-17.717086834733895,-95.93837535014006,-15.126050420168069,IMU0,6.875
-0.536484375,0.076640625,-0.11496093750000001,-17.99719887955182,-95.16806722689076,-14.985994397759104,IMU0,6.885
-0.5269042968750001,0.09580078125000001,-0.13412109375,-18.067226890756302,-94.67787114845939,-14.84593837535014,IMU0,6.895
-0.51732421875,0.10538085937500001,-0.09580078125000001,-18.487394957983195,-94.11764705882354,-14.775910364145659,IMU0,6.905
-0.47900390625000006,0.09580078125000001,-0.21076171875000002,-18.627450980392158,-93.41736694677871,-14.565826330532213,IMU0,6.915
-0.46942382812500005,0.10538085937500001,-0.13412109375,-18.907563025210084,-92.3669467787115,-14.42577030812325,IMU0,6.925
-0.49816406250000006,0.086220703125,-0.20118164062500002,-19.18767507002801,-91.24649859943978,-14.215686274509805,IMU0,6.935
-0.5269042968750001,0.10538085937500001,-0.11496093750000001,-19.537815126050422,-90.12605042016807,-14.005602240896359,IMU0,6.945
-0.5748046875,0.067060546875,-0.09580078125000001,-19.677871148459385,-89.28571428571429,-13.935574229691877,IMU0,6.955
-0.680185546875,0.067060546875,-0.028740234375000003,-20.028011204481793,-88.37535014005603,-13.865546218487395,IMU0,6.965
-0.6514453125,0.076640625,0.009580078125,-20.308123249299722,-87.3249299719888,-13.65546218487395,IMU0,6.975
-0.718505859375,0.10538085937500001,0.01916015625,-20.65826330532213,-86.27450980392157,-13.515406162464986,IMU0,6.985
-0.6514453125,0.12454101562500001,-0.01916015625,-20.938375350140056,-85.57422969187675,-13.445378151260504,IMU0,6.995
-0.59396484375,0.12454101562500001,-0.057480468750000006,-21.1484593837535,-84.94397759103641,-13.305322128851541,IMU0,7.005
-0.63228515625,0.11496093750000001,-0.067060546875,-21.35854341736695,-84.03361344537815,-13.23529411764706,IMU0,7.015
-0.55564453125,0.13412109375,-0.09580078125000001,-21.638655462184875,-83.19327731092437,-13.095238095238097,IMU0,7.025
-0.6610253906250001,0.11496093750000001,-0.028740234375000003,-21.988795518207283,-82.91316526610645,-12.955182072829132,IMU0,7.035
-0.6610253906250001,0.12454101562500001,-0.0383203125,-22.268907563025213,-82.49299719887955,-12.815126050420169,IMU0,7.045
-0.689765625,0.12454101562500001,0.009580078125,-22.478991596638657,-82.49299719887955,-12.88515406162465,IMU0,7.055
-0.6227050781250001,0.143701171875,-0.10538085937500001,-22.899159663865547,-82.21288515406162,-12.815126050420169,IMU0,7.065
-0.70892578125,0.12454101562500001,0.057480468750000006,-23.179271708683473,-82.00280112044818,-12.675070028011206,IMU0,7.075
-0.67060546875,0.13412109375,-0.0383203125,-23.38935574229692,-81.79271708683474,-12.53501400560224,IMU0,7.085
-0.5748046875,0.143701171875,-0.009580078125,-23.73949579831933,-82.00280112044818,-12.46498599439776,IMU0,7.095
-0.871787109375,0.162861328125,0.11496093750000001,-24.019607843137255,-82.21288515406162,-12.254901960784315,IMU0,7.105
-0.7280859375000001,0.162861328125,0.067060546875,-24.50980392156863,-82.00280112044818,-12.114845938375352,IMU0,7.115
-0.871787109375,0.12454101562500001,0.15328125,-24.789915966386555,-82.21288515406162,-12.114845938375352,IMU0,7.125
-0.9196875000000001,0.11496093750000001,0.15328125,-24.859943977591037,-81.86274509803921,-11.904761904761905,IMU0,7.135
-0.795146484375,0.10538085937500001,0.13412109375,-25.210084033613448,-81.09243697478992,-11.69467787114846,IMU0,7.145
-0.9963281250000001,0.11496093750000001,0.277822265625,-25.70028011204482,-80.53221288515407,-11.624649859943979,IMU0,7.155
-0.795146484375,0.09580078125000001,0.19160156250000002,-26.12044817927171,-79.90196078431373,-11.484593837535014,IMU0,7.165
-0.910107421875,0.10538085937500001,0.22034179687500002,-26.47058823529412,-79.48179271708683,-11.414565826330533,IMU0,7.175
-0.833466796875,0.143701171875,0.19160156250000002,-26.820728291316527,-78.8515406162465,-11.204481792717088,IMU0,7.185
-0.7855664062500001,0.13412109375,0.086220703125,-27.100840336134453,-78.36134453781513,-10.994397759103641,IMU0,7.195
-0.9963281250000001,0.11496093750000001,0.42152343750000004,-27.521008403361346,-77.80112044817928,-10.714285714285715,IMU0,7.205
-0.7664062500000001,0.10538085937500001,0.11496093750000001,-27.801120448179272,-77.24089635854342,-10.434173669467787,IMU0,7.215
-1.274150390625,0.143701171875,0.6610253906250001,-28.0812324929972,-76.9607843137255,-10.294117647058824,IMU0,7.225
-0.871787109375,0.10538085937500001,0.3065625,-28.571428571428573,-75.70028011204482,-9.943977591036415,IMU0,7.235
-1.2070898437500002,0.15328125,0.59396484375,-29.20168067226891,-74.57983193277312,-9.873949579831933,IMU0,7.245
-0.8238867187500001,0.19160156250000002,0.11496093750000001,-29.481792717086837,-73.8795518207283,-9.593837535014005,IMU0,7.255
-1.120869140625,0.13412109375,0.40236328125000004,-29.831932773109244,-73.73949579831933,-9.523809523809524,IMU0,7.265
-1.120869140625,0.162861328125,0.51732421875,-30.252100840336137,-72.47899159663866,-9.243697478991598,IMU0,7.275
-1.044228515625,0.143701171875,0.3065625,-30.672268907563026,-71.42857142857143,-9.103641456582633,IMU0,7.285
-1.465751953125,0.15328125,0.9580078125000001,-31.302521008403364,-69.39775910364146,-8.96358543417367,IMU0,7.295
-1.1687695312500002,0.10538085937500001,0.5748046875,-31.862745098039216,-66.66666666666667,-8.823529411764707,IMU0,7.305
-1.59029296875,0.15328125,1.1304492187500002,-32.77310924369748,-64.14565826330532,-8.823529411764707,IMU0,7.315
-1.350791015625,0.11496093750000001,0.8238867187500001,-33.68347338935575,-60.7843137254902,-8.823529411764707,IMU0,7.325
-1.6381933593750002,0.13412109375,0.9963281250000001,-34.59383753501401,-56.09243697478992,-8.893557422969188,IMU0,7.335
-1.8393750000000002,0.13412109375,1.235830078125,-35.57422969187675,-49.719887955182074,-9.033613445378151,IMU0,7.345
-1.8489550781250002,0.22034179687500002,1.4465917968750002,-36.97478991596639,-41.806722689075634,-9.173669467787116,IMU0,7.355
-1.944755859375,0.258662109375,1.2837304687500002,-38.72549019607843,-33.403361344537814,-9.38375350140056,IMU0,7.365
-2.289638671875,0.32572265625,1.8010546875000002,-40.406162464986,-23.73949579831933,-9.73389355742297,IMU0,7.375
-2.6441015625000004,0.38320312500000003,2.3279589843750004,-42.436974789915965,-11.904761904761905,-10.364145658263306,IMU0,7.385
-3.2189062500000003,0.49816406250000006,3.0560449218750003,-45.23809523809524,2.801120448179272,-11.204481792717088,IMU0,7.395
-3.6691699218750005,0.775986328125,3.496728515625,-48.38935574229692,20.798319327731093,-12.605042016806724,IMU0,7.405
-4.3876757812500005,1.044228515625,4.0236328125,-52.38095238095239,41.52661064425771,-14.565826330532213,IMU0,7.415
-5.201982421875,1.3220507812500002,4.397255859375,-56.72268907563026,63.235294117647065,-17.366946778711487,IMU0,7.425
-5.2498828125,1.55197265625,5.19240234375,-61.484593837535016,86.34453781512606,-20.798319327731093,IMU0,7.435
-4.952900390625,1.7244140625000002,3.9182519531250004,-65.96638655462185,107.98319327731093,-24.859943977591037,IMU0,7.445
-3.9086718750000005,1.753154296875,3.324287109375,-69.53781512605042,124.50980392156863,-28.92156862745098,IMU0,7.455
-2.93150390625,1.6381933593750002,2.366279296875,-71.70868347338936,135.43417366946778,-32.84313725490196,IMU0,7.465
-3.171005859375,1.6381933593750002,1.89685546875,-73.31932773109244,141.87675070028013,-36.5546218487395,IMU0,7.475
-3.1039453125,1.70525390625,2.70158203125,-74.36974789915966,146.5686274509804,-40.33613445378151,IMU0,7.485
-3.190166015625,1.8872753906250002,2.002236328125,-75.35014005602241,149.85994397759103,-44.25770308123249,IMU0,7.495
-3.6691699218750005,2.05013671875,2.6632617187500003,-76.12044817927172,150.56022408963585,-48.59943977591037,IMU0,7.505
-3.4488281250000004,2.1842578125000003,2.222578125,-76.82072829131653,150.14005602240897,-53.0812324929972,IMU0,7.515
-3.73623046875,2.212998046875,2.20341796875,-77.6610644257703,148.4593837535014,-57.913165266106446,IMU0,7.525
-3.190166015625,2.155517578125,2.040556640625,-77.73109243697479,144.60784313725492,-62.53501400560224,IMU0,7.535
-3.6404296875,2.1842578125000003,2.4141796875000003,-78.01120448179272,139.2857142857143,-67.22689075630252,IMU0,7.545
-4.08111328125,2.289638671875,2.462080078125,-78.22128851540617,133.26330532212884,-71.9187675070028,IMU0,7.555
-4.895419921875001,2.481240234375,2.8931835937500003,-78.43137254901961,108.40336134453781,-76.82072829131653,IMU0,7.565
-5.182822265625,2.596201171875,2.462080078125,-79.76190476190476,108.61344537815127,-87.74509803921569,IMU0,7.575
-5.8246875000000005,2.615361328125,3.094365234375,-80.74229691876751,97.54901960784314,-94.04761904761905,IMU0,7.585
-5.987548828125,2.7207421875,3.477568359375,-81.9327731092437,85.29411764705883,-100.49019607843138,IMU0,7.595
-6.514453125,2.77822265625,3.2093261718750004,-83.33333333333334,70.37815126050421,-107.21288515406162,IMU0,7.605
-6.485712890625001,2.77822265625,3.3913476562500002,-85.08403361344538,54.061624649859944,-113.93557422969188,IMU0,7.615
-4.5601171875,2.682421875,2.2608984375000003,-86.62464985994399,39.35574229691877,-119.74789915966387,IMU0,7.625
-4.397255859375,2.54830078125,1.753154296875,-87.74509803921569,24.50980392156863,-124.57983193277312,IMU0,7.635
-3.3721875000000003,2.462080078125,1.2070898437500002,-88.23529411764706,12.254901960784315,-127.94117647058825,IMU0,7.645
-3.2763867187500004,2.442919921875,1.0538085937500001,-88.8655462184874,2.030812324929972,-130.53221288515408,IMU0,7.655
-3.4871484375,2.5004003906250003,1.197509765625,-89.56582633053222,-6.652661064425771,-132.63305322128852,IMU0,7.665
-3.9278320312500004,2.5866210937500003,1.36037109375,-90.406162464986,-15.616246498599441,-134.733893557423,IMU0,7.675
-5.03912109375,2.7590625,2.01181640625,-91.5266106442577,-26.820728291316527,-137.2549019607843,IMU0,7.685
-5.949228515625,2.921923828125,2.5099804687500002,-93.20728291316527,-40.68627450980392,-140.406162464986,IMU0,7.695
-6.744375000000001,3.075205078125,3.017724609375,-95.93837535014006,-55.602240896358545,-144.187675070028,IMU0,7.705
-6.811435546875001,3.2284863281250002,3.00814453125,-99.50980392156863,-71.70868347338936,-148.0392156862745,IMU0,7.715
-6.591093750000001,3.2572265625,2.835703125,-103.5014005602241,-88.58543417366947,-151.75070028011206,IMU0,7.725
-6.504873046875001,3.266806640625,2.615361328125,-107.63305322128852,-105.25210084033614,-154.76190476190476,IMU0,7.735
-6.006708984375001,3.247646484375,3.017724609375,-112.04481792717087,-120.72829131652662,-157.0028011204482,IMU0,7.745
-5.834267578125,3.247646484375,3.5350488281250003,-116.9467787114846,-133.82352941176472,-158.4033613445378,IMU0,7.755
-6.102509765625,3.2763867187500004,3.496728515625,-122.26890756302521,-145.16806722689077,-159.10364145658264,IMU0,7.765
-5.594765625,3.247646484375,3.6404296875,-127.80112044817928,-155.3921568627451,-159.2436974789916,IMU0,7.775
-6.504873046875001,3.31470703125,4.263134765625001,-133.8935574229692,-164.7058823529412,-159.17366946778714,IMU0,7.785
-6.1312500000000005,3.31470703125,4.358935546875,-140.12605042016807,-172.2689075630252,-158.61344537815125,IMU0,7.795
-6.84017578125,3.324287109375,5.144501953125,-146.77871148459386,-178.78151260504202,-158.19327731092437,IMU0,7.805
-6.753955078125,3.3721875000000003,4.646337890625,-153.71148459383755,-183.26330532212887,-157.07282913165267,IMU0,7.815
-7.079677734375,3.3338671875,5.297783203125,-161.27450980392157,-186.41456582633054,-156.02240896358543,IMU0,7.825
-7.692802734375,3.3338671875,5.939648437500001,-169.04761904761907,-184.6638655462185,-154.55182072829132,IMU0,7.835
-7.137158203125001,3.35302734375,6.15041015625,-176.9607843137255,-178.22128851540617,-152.94117647058823,IMU0,7.845
-7.750283203125001,3.343447265625,6.600673828125,-185.15406162464987,-169.187675070028,-151.33053221288517,IMU0,7.855
-7.75986328125,3.3338671875,6.361171875,-192.85714285714286,-157.07282913165267,-149.6498599439776,IMU0,7.865
-8.0089453125,3.3626074218750004,6.868916015625,-200.56022408963585,-142.7871148459384,-148.4593837535014,IMU0,7.875
-8.037685546875,3.4105078125,6.524033203125001,-208.0532212885154,-125.56022408963587,-147.3389355742297,IMU0,7.885
-7.731123046875,3.4392480468750004,6.821015625,-215.19607843137257,-107.84313725490196,-146.70868347338936,IMU0,7.895
-7.711962890625,3.5925292968750004,6.638994140625001,-221.49859943977592,-89.35574229691878,-146.49859943977592,IMU0,7.905
-7.395820312500001,3.6979101562500003,6.274951171875,-227.3109243697479,-70.86834733893558,-146.84873949579833,IMU0,7.915
-7.271279296875001,3.7170703125,6.49529296875,-232.56302521008405,-51.96078431372549,-147.61904761904762,IMU0,7.925
-6.907236328125,3.803291015625,5.776787109375,-237.18487394957984,-33.61344537815126,-148.8795518207283,IMU0,7.935
-7.204218750000001,3.803291015625,6.399492187500001,-241.24649859943978,-16.596638655462186,-151.05042016806723,IMU0,7.945
-7.424560546875001,3.6979101562500003,5.748046875,-244.95798319327733,1.5406162464985995,-153.64145658263305,IMU0,7.955
-7.5012011718750005,3.6404296875,6.399492187500001,-248.31932773109244,18.977591036414566,-157.42296918767508,IMU0,7.965
-7.922724609375001,3.496728515625,6.1695703125,-250.98039215686276,35.43417366946779,-161.9747899159664,IMU0,7.975
-7.683222656250001,3.35302734375,6.0162890625,-253.1512605042017,48.459383753501406,-167.57703081232495,IMU0,7.985
-7.64490234375,3.3338671875,6.179150390625001,-254.90196078431373,59.80392156862745,-173.8795518207283,IMU0,7.995
-7.922724609375001,3.171005859375,5.795947265625,-256.1624649859944,70.7983193277311,-180.60224089635855,IMU0,8.005
-7.395820312500001,2.9889843750000002,5.623505859375,-256.7927170868347,79.6218487394958,-188.02521008403363,IMU0,8.015
-7.635322265625001,2.8069628906250004,5.4127441406250005,-256.6526610644258,85.92436974789916,-195.93837535014006,IMU0,8.025
-7.462880859375001,2.5674609375000004,4.981640625000001,-256.2324929971989,89.91596638655463,-204.06162464985997,IMU0,8.035
-7.347919921875,2.24173828125,5.000800781250001,-255.60224089635855,91.66666666666667,-212.3249299719888,IMU0,8.045
-7.2616992187500005,1.7627343750000002,4.052373046875,-254.06162464985997,92.57703081232494,-220.65826330532215,IMU0,8.055
-7.3287597656250005,1.0921289062500001,3.822451171875,-252.03081232493,93.41736694677871,-228.921568627451,IMU0,8.065
-6.8497558593750005,0.335302734375,3.496728515625,-249.85994397759106,94.95798319327731,-237.04481792717087,IMU0,8.075
-6.878496093750001,-0.44068359375000005,2.6632617187500003,-246.9887955182073,97.89915966386555,-245.0280112044818,IMU0,8.085
-6.6964746093750005,-1.2070898437500002,1.6860937500000002,-243.20728291316527,101.33053221288516,-252.94117647058826,IMU0,8.095
-5.9779687500000005,-1.983076171875,0.8622070312500001,-238.58543417366948,105.0420168067227,-260.7843137254902,IMU0,8.105
-5.38400390625,-2.6728417968750002,-0.086220703125,-232.91316526610646,108.96358543417368,-268.3473389355742,IMU0,8.115
-4.3014550781250005,-3.2955468750000003,-1.427431640625,-226.1904761904762,112.18487394957984,-275.21008403361344,IMU0,8.125
-3.036884765625,-4.2152343750000005,-2.442919921875,-218.27731092436977,112.88515406162466,-281.30252100840335,IMU0,8.135
-2.54830078125,-5.221142578125001,-3.73623046875,-209.31372549019608,110.4341736694678,-286.5546218487395,IMU0,8.145
-0.22992187500000003,-6.428232421875,-4.0619531250000005,-199.43977591036415,104.27170868347339,-290.6862745098039,IMU0,8.155
0.8047265625000001,-7.424560546875001,-5.26904296875,-189.42577030812325,92.3669467787115,-293.4873949579832,IMU0,8.165
4.23439453125,-7.347919921875,-12.4541015625,-177.10084033613447,71.9187675070028,-293.9075630252101,IMU0,8.175
7.510781250000001,-8.909472656250001,-14.782060546875002,-161.624649859944,38.30532212885154,-291.45658263305324,IMU0,8.185
16.927998046875,-9.388476562500001,-5.8917480468750005,-149.7198879551821,1.3305322128851542,-283.5434173669468,IMU0,8.195
12.981005859375001,-10.174042968750001,-10.748847656250001,-139.91596638655463,-39.21568627450981,-273.1792717086835,IMU0,8.205
8.83283203125,-10.423125,-15.270644531250001,-130.95238095238096,-81.02240896358543,-261.2044817927171,IMU0,8.215
15.337705078125001,-10.413544921875001,-11.103310546875,-122.19887955182074,-125.84033613445379,-248.73949579831933,IMU0,8.225
16.07537109375,-10.05908203125,-13.613291015625,-114.77591036414566,-176.54061624649862,-234.52380952380955,IMU0,8.235
13.23966796875,-9.819580078125,-14.657519531250001,-108.19327731092437,-226.1204481792717,-218.62745098039215,IMU0,8.245
13.488750000000001,-9.302255859375,-11.103310546875,-103.29131652661064,-270.7983193277311,-202.52100840336135,IMU0,8.255
12.51158203125,-8.79451171875,-13.574970703125,-98.94957983193278,-311.9047619047619,-186.41456582633054,IMU0,8.265
10.02076171875,-8.171806640625,-10.825488281250001,-95.58823529411765,-345.7983193277311,-170.65826330532212,IMU0,8.275
10.471025390625,-7.8939843750000005,-11.9942578125,-92.43697478991596,-371.07843137254906,-154.83193277310926,IMU0,8.285
7.338339843750001,-7.750283203125001,-10.969189453125,-89.42577030812325,-387.95518207282913,-140.12605042016807,IMU0,8.295
7.041357421875,-7.558681640625,-12.693603515625,-85.4341736694678,-391.7366946778712,-125.49019607843138,IMU0,8.305
6.581513671875,-7.510781250000001,-13.33546875,-80.18207282913166,-386.8347338935574,-112.25490196078432,IMU0,8.315
4.7804589843750005,-7.462880859375001,-13.000166015625,-73.52941176470588,-371.49859943977594,-99.57983193277312,IMU0,8.325
4.243974609375,-7.290439453125001,-15.146103515625,-65.406162464986,-346.49859943977594,-88.30532212885154,IMU0,8.335
2.0309765625000002,-6.84017578125,-14.264736328125,-56.09243697478992,-314.07563025210084,-78.92156862745098,IMU0,8.345
0.852626953125,-6.418652343750001,-14.19767578125,-46.28851540616247,-279.20168067226894,-71.5686274509804,IMU0,8.355
1.427431640625,-5.99712890625,-13.182187500000001,-36.41456582633053,-243.34733893557424,-65.82633053221289,IMU0,8.365
0.852626953125,-5.748046875,-12.703183593750001,-26.680672268907564,-207.84313725490196,-61.134453781512605,IMU0,8.375
0.0383203125,-5.489384765625,-12.808564453125001,-16.946778711484594,-171.35854341736695,-57.28291316526611,IMU0,8.385
-0.047900390625000004,-5.288203125000001,-12.128378906250001,-7.142857142857143,-135.92436974789916,-54.48179271708684,IMU0,8.395
0.19160156250000002,-5.11576171875,-11.783496093750001,2.5210084033613445,-102.45098039215686,-52.17086834733894,IMU0,8.405
-0.067060546875,-4.952900390625,-10.911708984375,11.974789915966387,-70.23809523809524,-50.21008403361345,IMU0,8.415
-0.01916015625,-4.8666796875000005,-11.179951171875,21.288515406162468,-39.14565826330532,-48.38935574229692,IMU0,8.425
0.11496093750000001,-4.77087890625,-9.953701171875,30.46218487394958,-10.364145658263306,-46.77871148459384,IMU0,8.435
0.335302734375,-4.57927734375,-9.656718750000001,39.285714285714285,15.19607843137255,-44.957983193277315,IMU0,8.445
0.59396484375,-4.358935546875,-9.034013671875,47.61904761904762,36.06442577030813,-42.997198879551824,IMU0,8.455
0.910107421875,-4.196074218750001,-8.14306640625,55.88235294117647,52.94117647058824,-40.96638655462185,IMU0,8.465
1.2837304687500002,-4.071533203125,-7.683222656250001,63.72549019607843,65.33613445378151,-38.655462184873954,IMU0,8.475
1.7339941406250001,-3.9278320312500004,-6.99345703125,71.00840336134453,72.96918767507003,-36.06442577030813,IMU0,8.485
1.85853515625,-3.9182519531250004,-6.399492187500001,77.80112044817928,76.75070028011204,-33.26330532212885,IMU0,8.495
2.481240234375,-4.033212890625,-6.083349609375,84.17366946778712,76.61064425770309,-30.11204481792717,IMU0,8.505
2.9602441406250004,-4.358935546875,-5.805527343750001,90.33613445378151,72.12885154061625,-26.96078431372549,IMU0,8.515
3.3626074218750004,-4.7804589843750005,-5.968388671875,96.42857142857143,63.79551820728292,-23.529411764705884,IMU0,8.525
3.726650390625,-5.0199609375000005,-5.604345703125,102.31092436974791,51.33053221288515,-20.168067226890756,IMU0,8.535
3.96615234375,-5.05828125,-4.952900390625,107.84313725490196,35.15406162464986,-16.80672268907563,IMU0,8.545
4.033212890625,-5.07744140625,-4.00447265625,112.95518207282913,16.246498599439775,-13.725490196078432,IMU0,8.555
4.243974609375,-5.134921875000001,-3.477568359375,117.15686274509804,-4.061624649859944,-10.994397759103641,IMU0,8.565
4.320615234375,-5.355263671875,-2.9794042968750003,120.86834733893558,-24.089635854341736,-8.543417366946779,IMU0,8.575
4.655917968750001,-5.700146484375001,-2.60578125,124.08963585434174,-43.0672268907563,-6.302521008403362,IMU0,8.585
4.684658203125,-6.246210937500001,-2.1938378906250002,129.83193277310926,-82.98319327731093,-3.011204481792717,IMU0,8.595
4.588857421875001,-6.198310546875001,-1.6094531250000002,132.56302521008405,-102.87114845938376,-1.9607843137254903,IMU0,8.605
4.1481738281250005,-5.987548828125,-1.101708984375,134.733893557423,-122.12885154061625,-1.6106442577030813,IMU0,8.615
3.6404296875,-5.9779687500000005,-0.814306640625,136.48459383753502,-139.2857142857143,-1.8207282913165266,IMU0,8.625
3.573369140625,-6.447392578125,-0.7472460937500001,138.0952380952381,-154.83193277310926,-2.6610644257703084,IMU0,8.635
3.8320312500000004,-7.271279296875001,-0.814306640625,139.6358543417367,-169.81792717086836,-3.9215686274509807,IMU0,8.645
3.6787500000000004,-8.171806640625,-0.8813671875000001,141.38655462184875,-184.52380952380952,-5.602240896358544,IMU0,8.655
3.9469921875000002,-9.072333984375,-0.8238867187500001,142.85714285714286,-197.89915966386556,-7.42296918767507,IMU0,8.665
3.6212695312500003,-9.886640625,-0.6035449218750001,144.39775910364148,-210.50420168067228,-9.663865546218489,IMU0,8.675
3.554208984375,-10.739267578125,-0.45984375000000005,145.72829131652662,-221.77871148459386,-12.254901960784315,IMU0,8.685
3.4871484375,-11.534414062500002,-0.48858398437500006,146.84873949579833,-231.79271708683476,-15.19607843137255,IMU0,8.695
3.2189062500000003,-12.185859375000001,-0.0383203125,147.68907563025212,-240.8263305322129,-18.627450980392158,IMU0,8.705
3.324287109375,-12.770244140625001,0.37362304687500003,148.24929971988797,-249.6498599439776,-22.268907563025213,IMU0,8.715
3.2189062500000003,-13.105546875000002,0.9005273437500001,148.0392156862745,-258.1932773109244,-26.190476190476193,IMU0,8.725
3.6787500000000004,-13.220507812500001,2.24173828125,146.84873949579833,-266.45658263305324,-30.252100840336137,IMU0,8.735
4.512216796875,-13.000166015625,4.77087890625,144.53781512605042,-274.3697478991597,-34.103641456582636,IMU0,8.745
2.7303222656250004,-12.655283203125,4.6942382812500005,140.8263305322129,-281.30252100840335,-37.885154061624654,IMU0,8.755
3.7649707031250004,-12.482841796875,5.36484375,135.7843137254902,-285.92436974789916,-41.45658263305322,IMU0,8.765
4.684658203125,-12.406201171875,6.121669921875,130.11204481792717,-289.3557422969188,-44.67787114845939,IMU0,8.775
4.655917968750001,-12.492421875000002,6.983876953125001,123.52941176470588,-291.8767507002801,-46.98879551820728,IMU0,8.785
6.236630859375,-12.72234375,7.7790234375,116.10644257703082,-293.62745098039215,-48.24929971988796,IMU0,8.795
6.38033203125,-13.048066406250001,8.219707031250001,108.05322128851542,-295.86834733893556,-48.73949579831933,IMU0,8.805
7.204218750000001,-13.0672265625,8.5454296875,99.57983193277312,-297.12885154061627,-47.89915966386555,IMU0,8.815
8.267607421875,-12.85646484375,8.6220703125,90.68627450980392,-297.7591036414566,-46.148459383753504,IMU0,8.825
8.344248046875,-12.626542968750002,8.708291015625,82.00280112044818,-297.7591036414566,-43.34733893557423,IMU0,8.835
8.555009765625,-12.58822265625,8.737031250000001,73.24929971988796,-295.93837535014006,-39.56582633053222,IMU0,8.845
9.244775390625001,-12.339140625,8.6220703125,64.49579831932773,-292.92717086834733,-35.0140056022409,IMU0,8.855
9.417216796875001,-12.022998046875001,8.018525390625001,56.44257703081233,-289.14565826330534,-29.6218487394958,IMU0,8.865
9.436376953125,-11.773916015625002,7.874824218750001,48.80952380952381,-285.0840336134454,-23.599439775910366,IMU0,8.875
9.44595703125,-11.601474609375002,7.357500000000001,41.87675070028011,-280.3921568627451,-17.15686274509804,IMU0,8.885
9.40763671875,-11.314072265625,6.926396484375,35.57422969187675,-274.15966386554624,-10.434173669467787,IMU0,8.895
8.775351562500001,-10.911708984375,6.389912109375,30.182072829131656,-266.8067226890756,-3.5714285714285716,IMU0,8.905
8.564589843750001,-10.480605468750001,5.939648437500001,25.07002801120448,-258.5434173669468,3.2913165266106446,IMU0,8.915
8.037685546875,-10.087822265625,5.5851855468750005,20.798319327731093,-250.0,9.943977591036415,IMU0,8.925
7.8077636718750005,-9.8483203125,5.087021484375001,16.876750700280112,-240.3361344537815,16.526610644257705,IMU0,8.935
7.9802050781250005,-9.790839843750001,5.182822265625,13.515406162464986,-230.0420168067227,23.249299719887958,IMU0,8.945
8.06642578125,-9.857900390625,5.03912109375,9.803921568627452,-218.62745098039215,30.11204481792717,IMU0,8.955
8.267607421875,-9.90580078125,5.05828125,7.002801120448179,-205.95238095238096,37.39495798319328,IMU0,8.965
8.286767578125001,-9.695039062500001,5.03912109375,4.131652661064426,-191.73669467787116,44.88795518207283,IMU0,8.975
8.047265625,-9.44595703125,4.569697265625,1.400560224089636,-175.8403361344538,52.73109243697479,IMU0,8.985
8.296347656250001,-9.33099609375,4.378095703125,-1.2605042016806722,-158.61344537815125,60.714285714285715,IMU0,8.995
8.076005859375,-9.350156250000001,4.090693359375,-3.641456582633053,-140.26610644257704,68.69747899159664,IMU0,9.005
8.842412109375001,-9.513017578125,4.282294921875001,-5.9523809523809526,-121.5686274509804,77.10084033613445,IMU0,9.015
8.9286328125,-9.4651171875,4.196074218750001,-8.473389355742297,-107.77310924369749,85.36414565826331,IMU0,9.025
8.71787109375,-9.273515625,3.6308496093750002,-10.714285714285715,-95.51820728291317,93.83753501400561,IMU0,9.035
7.865244140625,-8.919052734375,4.0619531250000005,-12.815126050420169,-84.31372549019608,101.89075630252101,IMU0,9.045
7.280859375,-8.440048828125,3.2955468750000003,-14.84593837535014,-74.08963585434174,109.38375350140056,IMU0,9.055
6.9359765625000005,-8.286767578125001,3.650009765625,-16.876750700280112,-65.82633053221289,116.31652661064426,IMU0,9.065
6.80185546875,-8.344248046875,3.4871484375,-18.69747899159664,-59.03361344537815,122.82913165266108,IMU0,9.075
6.926396484375,-8.67955078125,3.803291015625,-20.72829131652661,-55.11204481792717,129.06162464985994,IMU0,9.085
6.49529296875,-8.83283203125,4.243974609375,-22.969187675070028,-57.07282913165266,134.94397759103643,IMU0,9.095
6.1695703125,-8.98611328125,3.73623046875,-24.92997198879552,-61.41456582633054,140.406162464986,IMU0,9.105
5.623505859375,-9.06275390625,4.358935546875,-26.750700280112046,-66.38655462184875,145.58823529411765,IMU0,9.115
4.905,-9.10107421875,3.9374121093750003,-28.36134453781513,-71.70868347338936,150.3501400560224,IMU0,9.125
4.3876757812500005,-9.1585546875,4.109853515625001,-30.04201680672269,-76.9607843137255,154.55182072829132,IMU0,9.135
3.6691699218750005,-9.359736328125,3.803291015625,-31.372549019607845,-81.1624649859944,158.33333333333334,IMU0,9.145
3.00814453125,-9.474697265625,4.243974609375,-32.49299719887955,-84.593837535014,161.55462184873952,IMU0,9.155
2.35669921875,-9.695039062500001,4.109853515625001,-33.82352941176471,-87.11484593837535,164.2857142857143,IMU0,9.165
1.7627343750000002,-9.94412109375,4.033212890625,-35.0140056022409,-89.49579831932773,166.52661064425772,IMU0,9.175
1.005908203125,-9.963281250000001,4.3301953125,-36.134453781512605,-91.38655462184875,168.1372549019608,IMU0,9.185
0.296982421875,-9.896220703125001,4.3014550781250005,-37.324929971988794,-92.71708683473389,169.32773109243698,IMU0,9.195
-0.0383203125,-9.7716796875,4.167333984375,-38.37535014005602,-93.76750700280112,170.0280112044818,IMU0,9.205
-0.6227050781250001,-9.857900390625,4.071533203125,-39.35574229691877,-94.67787114845939,170.23809523809524,IMU0,9.215
-1.3412109375,-10.25068359375,4.08111328125,-40.33613445378151,-95.37815126050421,170.0280112044818,IMU0,9.225
-2.232158203125,-10.59556640625,4.08111328125,-41.31652661064426,-96.42857142857143,169.187675070028,IMU0,9.235
-2.6536816406250003,-10.806328125,3.9948925781250004,-42.296918767507,-97.40896358543418,167.7871148459384,IMU0,9.245
-2.9027636718750003,-10.787167968750001,3.975732421875,-43.34733893557423,-99.57983193277312,166.03641456582633,IMU0,9.255
-3.4392480468750004,-10.700947265625,3.7745507812500003,-43.8375350140056,-103.99159663865547,163.72549019607843,IMU0,9.265
-4.0619531250000005,-10.566826171875,3.745810546875,-44.11764705882353,-110.36414565826331,160.92436974789916,IMU0,9.275
-4.186494140625,-10.356064453125,3.343447265625,-43.90756302521009,-119.39775910364146,157.63305322128852,IMU0,9.285
-4.512216796875,-10.241103515625001,3.3338671875,-43.34733893557423,-131.51260504201682,153.99159663865547,IMU0,9.295
